size,condition,trial,subject,correct,RT
1,easy,1,1,1,360.003
1,easy,1,2,0,368.167
1,easy,1,3,1,336.943
1,easy,1,4,1,206.991
1,easy,1,5,1,307.431
1,easy,1,6,1,311.227
1,easy,1,7,1,307.5
1,easy,1,8,1,263.049
1,easy,1,9,0,436.328
1,easy,1,10,0,627.228
1,easy,2,1,0,438.629
1,easy,2,2,0,346.983
1,easy,2,3,0,434.715
1,easy,2,4,1,207.499
1,easy,2,5,1,305.28
1,easy,2,6,1,336.518
1,easy,2,7,0,408.407
1,easy,2,8,1,277.657
1,easy,2,9,0,475.026
1,easy,2,10,1,601.315
1,easy,3,1,0,425.872
1,easy,3,2,0,346.504
1,easy,3,3,1,339.947
1,easy,3,4,1,217.8
1,easy,3,5,1,324.283
1,easy,3,6,0,423.487
1,easy,3,7,0,440.686
1,easy,3,8,1,251.309
1,easy,3,9,1,364.802
1,easy,3,10,0,694.674
1,easy,4,1,1,352.171
1,easy,4,2,0,326.645
1,easy,4,3,1,394.338
1,easy,4,4,1,206.538
1,easy,4,5,0,356.849
1,easy,4,6,1,354.063
1,easy,4,7,0,433.624
1,easy,4,8,1,243.337
1,easy,4,9,1,374.005
1,easy,4,10,1,561.65
1,easy,5,1,1,359.679
1,easy,5,2,1,304.412
1,easy,5,3,1,329.42
1,easy,5,4,1,210.689
1,easy,5,5,1,296.694
1,easy,5,6,1,310.658
1,easy,5,7,1,308.626
1,easy,5,8,1,266.568
1,easy,5,9,0,484.968
1,easy,5,10,0,684.999
1,easy,6,1,0,472.627
1,easy,6,2,0,362.507
1,easy,6,3,1,338.897
1,easy,6,4,0,261.164
1,easy,6,5,1,318.713
1,easy,6,6,1,325.568
1,easy,6,7,0,383.878
1,easy,6,8,1,285.399
1,easy,6,9,0,473.36
1,easy,6,10,0,746.148
1,easy,7,1,1,362.754
1,easy,7,2,0,338.562
1,easy,7,3,1,370.754
1,easy,7,4,1,215.321
1,easy,7,5,1,306.96
1,easy,7,6,1,325.614
1,easy,7,7,0,444.261
1,easy,7,8,1,259.338
1,easy,7,9,0,458.809
1,easy,7,10,0,688.482
1,easy,8,1,1,380.056
1,easy,8,2,0,385.735
1,easy,8,3,1,362.833
1,easy,8,4,1,202.738
1,easy,8,5,1,294.886
1,easy,8,6,0,402.16
1,easy,8,7,0,413.989
1,easy,8,8,1,269.103
1,easy,8,9,0,420.662
1,easy,8,10,0,697.497
1,easy,9,1,0,423.925
1,easy,9,2,0,308.513
1,easy,9,3,1,373.384
1,easy,9,4,1,215.087
1,easy,9,5,1,276.826
1,easy,9,6,1,321.734
1,easy,9,7,1,310.415
1,easy,9,8,1,263.107
1,easy,9,9,1,348.393
1,easy,9,10,0,720.871
1,easy,10,1,1,372.255
1,easy,10,2,0,371.811
1,easy,10,3,1,375.448
1,easy,10,4,1,193.803
1,easy,10,5,1,299.303
1,easy,10,6,0,368.923
1,easy,10,7,0,384.382
1,easy,10,8,0,330.271
1,easy,10,9,1,338.745
1,easy,10,10,0,684.842
1,easy,11,1,1,348.4
1,easy,11,2,0,349.358
1,easy,11,3,1,390.334
1,easy,11,4,1,202.206
1,easy,11,5,0,355.385
1,easy,11,6,1,374.614
1,easy,11,7,0,407.407
1,easy,11,8,1,272.891
1,easy,11,9,0,430.365
1,easy,11,10,0,666.463
1,easy,12,1,1,353.256
1,easy,12,2,1,275.832
1,easy,12,3,1,349.031
1,easy,12,4,1,218.023
1,easy,12,5,1,325.087
1,easy,12,6,1,297.016
1,easy,12,7,0,408.149
1,easy,12,8,1,270.656
1,easy,12,9,0,417.578
1,easy,12,10,0,704.01
1,easy,13,1,0,460.085
1,easy,13,2,0,381.222
1,easy,13,3,1,356.63
1,easy,13,4,1,214.328
1,easy,13,5,0,394.724
1,easy,13,6,0,400.975
1,easy,13,7,0,392.004
1,easy,13,8,1,273.954
1,easy,13,9,0,417.13
1,easy,13,10,1,605.748
1,easy,14,1,0,450.155
1,easy,14,2,0,361.839
1,easy,14,3,1,343.426
1,easy,14,4,1,204.729
1,easy,14,5,0,419.779
1,easy,14,6,1,350.361
1,easy,14,7,0,413.498
1,easy,14,8,1,266.64
1,easy,14,9,1,364.089
1,easy,14,10,0,716.023
1,easy,15,1,0,430.149
1,easy,15,2,0,358.489
1,easy,15,3,1,349.333
1,easy,15,4,1,201.597
1,easy,15,5,1,323.571
1,easy,15,6,1,333.725
1,easy,15,7,1,317.437
1,easy,15,8,1,283.759
1,easy,15,9,0,418.805
1,easy,15,10,1,554.667
1,easy,16,1,1,341.312
1,easy,16,2,0,360.594
1,easy,16,3,1,394.897
1,easy,16,4,0,251.802
1,easy,16,5,1,318.205
1,easy,16,6,1,335.997
1,easy,16,7,0,393.442
1,easy,16,8,1,247.275
1,easy,16,9,0,479.464
1,easy,16,10,0,716.866
1,easy,17,1,1,364.434
1,easy,17,2,0,347.932
1,easy,17,3,1,317.617
1,easy,17,4,0,252.412
1,easy,17,5,1,281.589
1,easy,17,6,1,318.682
1,easy,17,7,1,344.665
1,easy,17,8,1,268.769
1,easy,17,9,1,387.606
1,easy,17,10,1,599.985
1,easy,18,1,1,342.928
1,easy,18,2,0,335.402
1,easy,18,3,1,365.884
1,easy,18,4,1,207.189
1,easy,18,5,1,309.649
1,easy,18,6,0,449.522
1,easy,18,7,0,407.479
1,easy,18,8,1,268.942
1,easy,18,9,0,448.171
1,easy,18,10,1,602.395
1,easy,19,1,0,448.6
1,easy,19,2,0,316.562
1,easy,19,3,1,347.521
1,easy,19,4,1,209.462
1,easy,19,5,1,278.167
1,easy,19,6,1,327.336
1,easy,19,7,0,399.306
1,easy,19,8,1,251.412
1,easy,19,9,0,416.455
1,easy,19,10,0,740.901
1,easy,20,1,1,360.953
1,easy,20,2,0,336.968
1,easy,20,3,1,380.387
1,easy,20,4,1,185.844
1,easy,20,5,1,303.056
1,easy,20,6,1,344.989
1,easy,20,7,1,340.587
1,easy,20,8,1,263.487
1,easy,20,9,1,345.463
1,easy,20,10,0,725.192
1,easy,21,1,1,351.048
1,easy,21,2,1,285.418
1,easy,21,3,1,340.58
1,easy,21,4,1,206.811
1,easy,21,5,1,295.935
1,easy,21,6,1,319.071
1,easy,21,7,0,416.796
1,easy,21,8,1,274.197
1,easy,21,9,1,397.437
1,easy,21,10,0,705.286
1,easy,22,1,1,379.117
1,easy,22,2,0,339.579
1,easy,22,3,1,377.064
1,easy,22,4,1,213.803
1,easy,22,5,1,310.455
1,easy,22,6,1,331.159
1,easy,22,7,0,410.415
1,easy,22,8,1,268.407
1,easy,22,9,1,375.946
1,easy,22,10,0,697.881
1,easy,23,1,1,345.743
1,easy,23,2,0,347.2
1,easy,23,3,1,344.113
1,easy,23,4,0,259.249
1,easy,23,5,1,288.08
1,easy,23,6,1,307.507
1,easy,23,7,0,372.579
1,easy,23,8,1,253.923
1,easy,23,9,1,352.158
1,easy,23,10,1,573.47
1,easy,24,1,0,449.332
1,easy,24,2,0,337.674
1,easy,24,3,1,380.663
1,easy,24,4,1,212.472
1,easy,24,5,1,316.686
1,easy,24,6,1,287.703
1,easy,24,7,0,389.645
1,easy,24,8,1,268.042
1,easy,24,9,1,357.701
1,easy,24,10,0,717.88
1,easy,25,1,1,348.775
1,easy,25,2,0,339.813
1,easy,25,3,1,352.071
1,easy,25,4,1,210.27
1,easy,25,5,1,301.383
1,easy,25,6,0,429.128
1,easy,25,7,0,403.943
1,easy,25,8,1,276.735
1,easy,25,9,1,371.971
1,easy,25,10,0,739.181
1,easy,26,1,1,375.581
1,easy,26,2,0,343.814
1,easy,26,3,1,354.439
1,easy,26,4,1,203.688
1,easy,26,5,0,368.293
1,easy,26,6,0,404.289
1,easy,26,7,0,417.899
1,easy,26,8,1,271.527
1,easy,26,9,1,348.103
1,easy,26,10,0,670.532
1,easy,27,1,1,362.202
1,easy,27,2,0,402.414
1,easy,27,3,1,348.969
1,easy,27,4,1,209.966
1,easy,27,5,1,323.994
1,easy,27,6,1,307.606
1,easy,27,7,0,411.733
1,easy,27,8,1,263.452
1,easy,27,9,0,432.973
1,easy,27,10,1,534.416
1,easy,28,1,1,342.401
1,easy,28,2,0,351.313
1,easy,28,3,1,347.279
1,easy,28,4,1,211.803
1,easy,28,5,1,306.165
1,easy,28,6,0,372.805
1,easy,28,7,0,405.785
1,easy,28,8,1,302.164
1,easy,28,9,1,383.439
1,easy,28,10,0,713.675
1,easy,29,1,1,387.656
1,easy,29,2,0,359.305
1,easy,29,3,1,385.569
1,easy,29,4,1,216.035
1,easy,29,5,1,301.418
1,easy,29,6,1,304.795
1,easy,29,7,0,380.339
1,easy,29,8,1,255.853
1,easy,29,9,1,385.721
1,easy,29,10,0,686.112
1,easy,30,1,1,381.049
1,easy,30,2,1,308.977
1,easy,30,3,1,368.322
1,easy,30,4,1,193.053
1,easy,30,5,0,373.545
1,easy,30,6,1,315.234
1,easy,30,7,0,398.179
1,easy,30,8,1,245.455
1,easy,30,9,0,425.043
1,easy,30,10,1,598.079
1,easy,31,1,1,377.684
1,easy,31,2,0,363.832
1,easy,31,3,0,423.174
1,easy,31,4,1,212.147
1,easy,31,5,1,298.093
1,easy,31,6,0,397.136
1,easy,31,7,1,339.293
1,easy,31,8,1,280.958
1,easy,31,9,1,322.629
1,easy,31,10,1,582.351
1,easy,32,1,1,374.55
1,easy,32,2,1,309.011
1,easy,32,3,1,341.191
1,easy,32,4,0,266.362
1,easy,32,5,1,331.264
1,easy,32,6,0,362.514
1,easy,32,7,0,405.103
1,easy,32,8,1,247.8
1,easy,32,9,0,421.29
1,easy,32,10,0,698.268
1,easy,33,1,1,359.821
1,easy,33,2,0,381.07
1,easy,33,3,1,377.718
1,easy,33,4,1,184.684
1,easy,33,5,1,286.535
1,easy,33,6,0,374.155
1,easy,33,7,1,340.154
1,easy,33,8,1,244.448
1,easy,33,9,1,331.231
1,easy,33,10,1,592.662
1,easy,34,1,0,427.583
1,easy,34,2,0,361.536
1,easy,34,3,1,389.189
1,easy,34,4,1,198.492
1,easy,34,5,1,304.569
1,easy,34,6,1,318.879
1,easy,34,7,0,383.529
1,easy,34,8,1,276.064
1,easy,34,9,1,329.477
1,easy,34,10,0,671.723
1,easy,35,1,1,341.62
1,easy,35,2,0,386.728
1,easy,35,3,1,408.122
1,easy,35,4,1,205.58
1,easy,35,5,1,272.727
1,easy,35,6,0,413.119
1,easy,35,7,1,301.432
1,easy,35,8,1,266.43
1,easy,35,9,0,475.037
1,easy,35,10,0,734.86
1,easy,36,1,1,360.292
1,easy,36,2,0,338.155
1,easy,36,3,1,336.911
1,easy,36,4,1,212.802
1,easy,36,5,1,309.058
1,easy,36,6,1,327.359
1,easy,36,7,0,392.774
1,easy,36,8,1,263.884
1,easy,36,9,0,410.398
1,easy,36,10,0,678.607
1,easy,37,1,0,428.012
1,easy,37,2,0,365.389
1,easy,37,3,1,357.772
1,easy,37,4,1,208.165
1,easy,37,5,0,383.81
1,easy,37,6,1,373.963
1,easy,37,7,0,401.93
1,easy,37,8,1,264.897
1,easy,37,9,1,365.461
1,easy,37,10,0,697.71
1,easy,38,1,1,365.67
1,easy,38,2,1,260.298
1,easy,38,3,1,375.925
1,easy,38,4,1,197.104
1,easy,38,5,1,279.68
1,easy,38,6,0,431.676
1,easy,38,7,0,384.156
1,easy,38,8,1,253.278
1,easy,38,9,0,468.648
1,easy,38,10,1,635.659
1,easy,39,1,0,425.77
1,easy,39,2,0,370.094
1,easy,39,3,1,377.15
1,easy,39,4,1,198.706
1,easy,39,5,1,303.191
1,easy,39,6,1,345.065
1,easy,39,7,0,376.582
1,easy,39,8,1,283.211
1,easy,39,9,0,414.566
1,easy,39,10,0,696.495
1,easy,40,1,1,326.389
1,easy,40,2,0,360.756
1,easy,40,3,1,386.97
1,easy,40,4,1,206.999
1,easy,40,5,1,313.447
1,easy,40,6,0,411.898
1,easy,40,7,0,391.897
1,easy,40,8,1,254.641
1,easy,40,9,1,342.637
1,easy,40,10,0,723.615
1,easy,41,1,0,414.358
1,easy,41,2,0,342.721
1,easy,41,3,1,371.28
1,easy,41,4,0,265.252
1,easy,41,5,1,322.366
1,easy,41,6,1,296.82
1,easy,41,7,1,331.636
1,easy,41,8,1,264.362
1,easy,41,9,0,425.618
1,easy,41,10,0,666.123
1,easy,42,1,1,368.943
1,easy,42,2,1,266.884
1,easy,42,3,0,479.137
1,easy,42,4,0,239.914
1,easy,42,5,1,291.071
1,easy,42,6,1,327.939
1,easy,42,7,0,385.324
1,easy,42,8,1,254.886
1,easy,42,9,0,453.62
1,easy,42,10,0,751.165
1,easy,43,1,1,332.086
1,easy,43,2,0,338.102
1,easy,43,3,1,356.62
1,easy,43,4,1,200.889
1,easy,43,5,1,313.279
1,easy,43,6,0,436.812
1,easy,43,7,0,426.974
1,easy,43,8,1,255.659
1,easy,43,9,0,431.884
1,easy,43,10,0,705.2
1,easy,44,1,1,373.827
1,easy,44,2,0,353.362
1,easy,44,3,1,347.018
1,easy,44,4,0,275.019
1,easy,44,5,1,285.121
1,easy,44,6,1,330.69
1,easy,44,7,0,422.783
1,easy,44,8,1,245.274
1,easy,44,9,0,438.364
1,easy,44,10,0,683.741
1,easy,45,1,1,332.699
1,easy,45,2,1,283.781
1,easy,45,3,1,381.379
1,easy,45,4,1,216.189
1,easy,45,5,1,285.731
1,easy,45,6,0,388
1,easy,45,7,1,334.308
1,easy,45,8,1,274.182
1,easy,45,9,1,350.923
1,easy,45,10,1,574.05
1,easy,46,1,0,455.077
1,easy,46,2,1,283.025
1,easy,46,3,1,340.957
1,easy,46,4,0,260.184
1,easy,46,5,1,310.869
1,easy,46,6,1,327.682
1,easy,46,7,0,379.256
1,easy,46,8,0,329.019
1,easy,46,9,0,409.992
1,easy,46,10,0,713.686
1,easy,47,1,1,384.676
1,easy,47,2,1,286.641
1,easy,47,3,1,380.139
1,easy,47,4,1,190.332
1,easy,47,5,1,305.143
1,easy,47,6,0,422.099
1,easy,47,7,0,379.856
1,easy,47,8,1,266.493
1,easy,47,9,1,325.364
1,easy,47,10,0,625.783
1,easy,48,1,0,456.39
1,easy,48,2,0,364.991
1,easy,48,3,0,451.509
1,easy,48,4,1,222.638
1,easy,48,5,0,381.524
1,easy,48,6,1,317.706
1,easy,48,7,0,396.608
1,easy,48,8,1,236.384
1,easy,48,9,0,440.108
1,easy,48,10,0,675.557
1,easy,49,1,0,448.686
1,easy,49,2,1,286.747
1,easy,49,3,1,365.845
1,easy,49,4,1,199.341
1,easy,49,5,0,349.685
1,easy,49,6,1,311.51
1,easy,49,7,1,324.343
1,easy,49,8,0,317.787
1,easy,49,9,0,448.215
1,easy,49,10,0,724.209
1,easy,50,1,1,350.583
1,easy,50,2,0,338.388
1,easy,50,3,1,367.561
1,easy,50,4,1,207.205
1,easy,50,5,1,300.961
1,easy,50,6,0,419.403
1,easy,50,7,0,376.888
1,easy,50,8,1,262.996
1,easy,50,9,0,465.453
1,easy,50,10,0,698.931
1,easy,51,1,1,364.911
1,easy,51,2,0,392.523
1,easy,51,3,1,381.514
1,easy,51,4,1,203.753
1,easy,51,5,1,288.405
1,easy,51,6,0,416.501
1,easy,51,7,0,411.511
1,easy,51,8,1,289.86
1,easy,51,9,0,430.207
1,easy,51,10,0,714.931
1,easy,52,1,1,354.195
1,easy,52,2,0,370.676
1,easy,52,3,0,430.428
1,easy,52,4,1,206.245
1,easy,52,5,1,337.499
1,easy,52,6,1,315.388
1,easy,52,7,0,407.815
1,easy,52,8,1,259.982
1,easy,52,9,0,453.901
1,easy,52,10,0,670.769
1,easy,53,1,1,384.327
1,easy,53,2,0,357.05
1,easy,53,3,1,356.854
1,easy,53,4,1,196.079
1,easy,53,5,0,372.694
1,easy,53,6,0,441.458
1,easy,53,7,1,329.382
1,easy,53,8,1,261.447
1,easy,53,9,0,425.814
1,easy,53,10,1,542.3
1,easy,54,1,1,365.334
1,easy,54,2,0,356.433
1,easy,54,3,0,454.523
1,easy,54,4,1,204.618
1,easy,54,5,1,323.686
1,easy,54,6,0,387.166
1,easy,54,7,0,418.03
1,easy,54,8,1,248.927
1,easy,54,9,0,430.971
1,easy,54,10,1,600.948
1,easy,55,1,0,431.223
1,easy,55,2,0,331.284
1,easy,55,3,1,377.915
1,easy,55,4,1,209.642
1,easy,55,5,1,312.746
1,easy,55,6,0,397.802
1,easy,55,7,0,405.891
1,easy,55,8,1,260.634
1,easy,55,9,0,481.19
1,easy,55,10,0,658.684
1,easy,56,1,1,333.814
1,easy,56,2,0,353.866
1,easy,56,3,1,333.942
1,easy,56,4,1,206.071
1,easy,56,5,1,323.714
1,easy,56,6,0,410.466
1,easy,56,7,1,312.918
1,easy,56,8,1,268.398
1,easy,56,9,0,457.977
1,easy,56,10,0,729.955
1,easy,57,1,1,303.989
1,easy,57,2,0,353.415
1,easy,57,3,1,343.701
1,easy,57,4,1,194.578
1,easy,57,5,1,307.415
1,easy,57,6,0,415.92
1,easy,57,7,0,391.04
1,easy,57,8,1,264.001
1,easy,57,9,0,476.213
1,easy,57,10,0,668.642
1,easy,58,1,1,386.048
1,easy,58,2,0,378.851
1,easy,58,3,1,381.053
1,easy,58,4,1,205.712
1,easy,58,5,1,309.595
1,easy,58,6,0,404.945
1,easy,58,7,0,430.205
1,easy,58,8,1,245.78
1,easy,58,9,0,408.569
1,easy,58,10,0,647.97
1,easy,59,1,1,370.89
1,easy,59,2,0,373.842
1,easy,59,3,1,348.329
1,easy,59,4,1,213.149
1,easy,59,5,1,289.565
1,easy,59,6,0,401.748
1,easy,59,7,0,440.466
1,easy,59,8,1,278.127
1,easy,59,9,0,415.932
1,easy,59,10,0,689.36
1,easy,60,1,0,438.972
1,easy,60,2,1,299.093
1,easy,60,3,1,325.927
1,easy,60,4,1,211.48
1,easy,60,5,1,295.796
1,easy,60,6,1,354.185
1,easy,60,7,0,445.39
1,easy,60,8,1,258.033
1,easy,60,9,1,358.776
1,easy,60,10,1,600.455
1,easy,61,1,1,363.286
1,easy,61,2,0,341.203
1,easy,61,3,1,362.771
1,easy,61,4,0,246.112
1,easy,61,5,1,301.589
1,easy,61,6,1,336.228
1,easy,61,7,0,409.16
1,easy,61,8,1,276.131
1,easy,61,9,0,450.852
1,easy,61,10,0,681.476
1,easy,62,1,0,458.112
1,easy,62,2,0,370.43
1,easy,62,3,1,350.285
1,easy,62,4,1,208.149
1,easy,62,5,1,322.816
1,easy,62,6,0,419.255
1,easy,62,7,1,370.853
1,easy,62,8,1,274.914
1,easy,62,9,0,446.462
1,easy,62,10,0,729.03
1,easy,63,1,0,481.175
1,easy,63,2,0,388.24
1,easy,63,3,1,365.182
1,easy,63,4,1,208.379
1,easy,63,5,1,309.408
1,easy,63,6,1,305.213
1,easy,63,7,0,405.165
1,easy,63,8,1,273.776
1,easy,63,9,0,433.093
1,easy,63,10,0,646.978
1,easy,64,1,0,424.92
1,easy,64,2,0,359.187
1,easy,64,3,1,359.693
1,easy,64,4,0,241.624
1,easy,64,5,1,303.797
1,easy,64,6,1,337.171
1,easy,64,7,0,387.363
1,easy,64,8,1,252.963
1,easy,64,9,1,368.121
1,easy,64,10,0,722.653
1,easy,65,1,1,409.322
1,easy,65,2,0,342.85
1,easy,65,3,1,366.826
1,easy,65,4,1,186.616
1,easy,65,5,1,316.884
1,easy,65,6,0,397.296
1,easy,65,7,0,431.474
1,easy,65,8,1,276.771
1,easy,65,9,0,452.141
1,easy,65,10,0,682.953
1,easy,66,1,1,365.82
1,easy,66,2,1,278.25
1,easy,66,3,1,388.228
1,easy,66,4,0,240.884
1,easy,66,5,0,382.135
1,easy,66,6,0,393.706
1,easy,66,7,1,319.105
1,easy,66,8,1,264.553
1,easy,66,9,0,443.793
1,easy,66,10,0,665.92
1,easy,67,1,0,434.407
1,easy,67,2,0,380.922
1,easy,67,3,1,390.387
1,easy,67,4,1,199.142
1,easy,67,5,0,369.922
1,easy,67,6,1,328.384
1,easy,67,7,1,296.089
1,easy,67,8,0,321.47
1,easy,67,9,0,437.95
1,easy,67,10,1,576.439
1,easy,68,1,0,460.309
1,easy,68,2,0,396.469
1,easy,68,3,1,345.217
1,easy,68,4,0,236.71
1,easy,68,5,1,310.289
1,easy,68,6,1,356.486
1,easy,68,7,0,371.099
1,easy,68,8,1,275.012
1,easy,68,9,1,361.89
1,easy,68,10,0,714.015
1,easy,69,1,1,376.47
1,easy,69,2,0,324.537
1,easy,69,3,1,365.495
1,easy,69,4,1,202.242
1,easy,69,5,0,409.465
1,easy,69,6,1,329.213
1,easy,69,7,0,396.658
1,easy,69,8,1,254.066
1,easy,69,9,1,364.499
1,easy,69,10,0,707.614
1,easy,70,1,1,365.6
1,easy,70,2,0,374.754
1,easy,70,3,1,358.948
1,easy,70,4,1,196.699
1,easy,70,5,1,296.903
1,easy,70,6,1,347.962
1,easy,70,7,0,420.592
1,easy,70,8,1,289.129
1,easy,70,9,1,348.808
1,easy,70,10,1,601.427
1,easy,71,1,1,354.851
1,easy,71,2,0,350.749
1,easy,71,3,1,334.938
1,easy,71,4,1,203.356
1,easy,71,5,1,293.272
1,easy,71,6,0,404.724
1,easy,71,7,0,418.486
1,easy,71,8,1,260.7
1,easy,71,9,0,441.486
1,easy,71,10,0,673.816
1,easy,72,1,1,363.168
1,easy,72,2,0,352.468
1,easy,72,3,1,377.593
1,easy,72,4,1,220.177
1,easy,72,5,1,305.489
1,easy,72,6,1,340.865
1,easy,72,7,1,326.334
1,easy,72,8,1,268.991
1,easy,72,9,0,450.835
1,easy,72,10,0,724.64
1,easy,73,1,0,382.342
1,easy,73,2,0,335.43
1,easy,73,3,1,355.348
1,easy,73,4,1,197.142
1,easy,73,5,0,358.229
1,easy,73,6,0,378.189
1,easy,73,7,1,329.416
1,easy,73,8,1,261.323
1,easy,73,9,0,397.164
1,easy,73,10,0,690.711
1,easy,74,1,1,348.685
1,easy,74,2,0,350.568
1,easy,74,3,1,345.125
1,easy,74,4,1,213.492
1,easy,74,5,1,298.414
1,easy,74,6,0,403.397
1,easy,74,7,0,440.615
1,easy,74,8,1,268.632
1,easy,74,9,0,437.587
1,easy,74,10,0,696.289
1,easy,75,1,0,398.959
1,easy,75,2,0,370.685
1,easy,75,3,1,351.011
1,easy,75,4,1,188.682
1,easy,75,5,1,295.802
1,easy,75,6,1,333.506
1,easy,75,7,0,394.312
1,easy,75,8,1,267.482
1,easy,75,9,0,424.288
1,easy,75,10,0,753.299
1,easy,76,1,0,455.144
1,easy,76,2,0,332.897
1,easy,76,3,1,379.075
1,easy,76,4,1,197.884
1,easy,76,5,1,306.643
1,easy,76,6,0,387.859
1,easy,76,7,0,399.626
1,easy,76,8,1,253.407
1,easy,76,9,0,442.866
1,easy,76,10,0,731.949
1,easy,77,1,1,359.382
1,easy,77,2,0,341.95
1,easy,77,3,1,329.791
1,easy,77,4,1,215.649
1,easy,77,5,1,310.376
1,easy,77,6,0,423.316
1,easy,77,7,1,336.629
1,easy,77,8,1,257.983
1,easy,77,9,0,452.081
1,easy,77,10,1,566.344
1,easy,78,1,1,336.281
1,easy,78,2,0,321.276
1,easy,78,3,1,352.646
1,easy,78,4,1,192.535
1,easy,78,5,0,381.79
1,easy,78,6,1,350.395
1,easy,78,7,1,315.85
1,easy,78,8,1,267.645
1,easy,78,9,0,454.688
1,easy,78,10,0,659.558
1,easy,79,1,1,338.058
1,easy,79,2,1,289.076
1,easy,79,3,1,332.062
1,easy,79,4,1,215.978
1,easy,79,5,1,299.152
1,easy,79,6,0,403.971
1,easy,79,7,0,361.838
1,easy,79,8,1,259.773
1,easy,79,9,0,447.239
1,easy,79,10,1,570.65
1,easy,80,1,0,389.034
1,easy,80,2,0,369.947
1,easy,80,3,1,386.044
1,easy,80,4,1,199.774
1,easy,80,5,1,309.174
1,easy,80,6,1,339.749
1,easy,80,7,0,409.917
1,easy,80,8,0,328.597
1,easy,80,9,1,375.19
1,easy,80,10,0,708.973
1,easy,81,1,1,383.894
1,easy,81,2,0,344.291
1,easy,81,3,1,363.744
1,easy,81,4,0,236.841
1,easy,81,5,1,301.249
1,easy,81,6,0,400.738
1,easy,81,7,0,379.974
1,easy,81,8,1,272.78
1,easy,81,9,0,474.195
1,easy,81,10,0,706.915
1,easy,82,1,1,330.077
1,easy,82,2,0,362.318
1,easy,82,3,0,453.403
1,easy,82,4,1,193.183
1,easy,82,5,1,307.672
1,easy,82,6,1,326.35
1,easy,82,7,0,429.481
1,easy,82,8,1,263.624
1,easy,82,9,0,426.467
1,easy,82,10,0,718.551
1,easy,83,1,1,362.127
1,easy,83,2,0,396.67
1,easy,83,3,1,351.631
1,easy,83,4,1,198.067
1,easy,83,5,1,321.837
1,easy,83,6,1,347.901
1,easy,83,7,0,445.475
1,easy,83,8,1,300.677
1,easy,83,9,0,448.966
1,easy,83,10,0,717.843
1,easy,84,1,1,353.661
1,easy,84,2,0,371.933
1,easy,84,3,1,393.229
1,easy,84,4,1,201.597
1,easy,84,5,1,323.508
1,easy,84,6,1,339.971
1,easy,84,7,0,378.995
1,easy,84,8,1,282.135
1,easy,84,9,0,432.134
1,easy,84,10,1,592.953
1,easy,85,1,1,366.936
1,easy,85,2,0,391.631
1,easy,85,3,1,362.015
1,easy,85,4,1,204.148
1,easy,85,5,1,278.421
1,easy,85,6,0,393.758
1,easy,85,7,0,431.61
1,easy,85,8,1,302.085
1,easy,85,9,0,437.831
1,easy,85,10,0,664.399
1,easy,86,1,1,347.574
1,easy,86,2,1,289.902
1,easy,86,3,1,385.929
1,easy,86,4,1,211.251
1,easy,86,5,1,292.25
1,easy,86,6,1,359.14
1,easy,86,7,1,342.249
1,easy,86,8,1,267.285
1,easy,86,9,0,397.478
1,easy,86,10,1,556.333
1,easy,87,1,0,388.795
1,easy,87,2,0,366.573
1,easy,87,3,1,361.885
1,easy,87,4,1,200.136
1,easy,87,5,0,400.711
1,easy,87,6,0,397.468
1,easy,87,7,0,367.482
1,easy,87,8,1,262.894
1,easy,87,9,0,446.668
1,easy,87,10,0,702.656
1,easy,88,1,0,447.051
1,easy,88,2,0,324.735
1,easy,88,3,1,364.412
1,easy,88,4,1,215.939
1,easy,88,5,1,296.817
1,easy,88,6,1,325.689
1,easy,88,7,1,350.928
1,easy,88,8,1,247.83
1,easy,88,9,0,463.434
1,easy,88,10,0,707.467
1,easy,89,1,1,366.861
1,easy,89,2,0,340.26
1,easy,89,3,1,395.412
1,easy,89,4,1,218.801
1,easy,89,5,1,297.921
1,easy,89,6,1,322.142
1,easy,89,7,0,378.059
1,easy,89,8,1,237.659
1,easy,89,9,0,449.711
1,easy,89,10,1,512.875
1,easy,90,1,1,351.071
1,easy,90,2,0,345.61
1,easy,90,3,1,363.693
1,easy,90,4,1,217.957
1,easy,90,5,1,290.17
1,easy,90,6,0,411.451
1,easy,90,7,0,414.544
1,easy,90,8,0,326.036
1,easy,90,9,1,376.262
1,easy,90,10,0,715.696
1,easy,91,1,1,358.141
1,easy,91,2,0,373.352
1,easy,91,3,1,385.539
1,easy,91,4,1,198.118
1,easy,91,5,0,365.952
1,easy,91,6,1,326.004
1,easy,91,7,1,328.832
1,easy,91,8,1,267.143
1,easy,91,9,0,431.142
1,easy,91,10,0,658.136
1,easy,92,1,1,373.538
1,easy,92,2,0,321.908
1,easy,92,3,1,325.429
1,easy,92,4,0,242.79
1,easy,92,5,0,370.965
1,easy,92,6,1,341.786
1,easy,92,7,0,407.623
1,easy,92,8,1,276.477
1,easy,92,9,0,466.985
1,easy,92,10,0,645.466
1,easy,93,1,1,344.407
1,easy,93,2,1,264.425
1,easy,93,3,0,435.349
1,easy,93,4,1,208.877
1,easy,93,5,0,369.126
1,easy,93,6,0,379.826
1,easy,93,7,0,399.061
1,easy,93,8,1,282.359
1,easy,93,9,0,422.006
1,easy,93,10,1,531.113
1,easy,94,1,1,361.974
1,easy,94,2,0,380.238
1,easy,94,3,1,366.526
1,easy,94,4,1,207.59
1,easy,94,5,1,316.474
1,easy,94,6,0,391.617
1,easy,94,7,0,406.878
1,easy,94,8,1,275.014
1,easy,94,9,0,446.492
1,easy,94,10,0,737.66
1,easy,95,1,1,367.063
1,easy,95,2,0,317.453
1,easy,95,3,1,371.515
1,easy,95,4,1,204.132
1,easy,95,5,1,293.469
1,easy,95,6,0,398.793
1,easy,95,7,1,310.722
1,easy,95,8,1,268.167
1,easy,95,9,0,446.33
1,easy,95,10,0,707.482
1,easy,96,1,1,373.513
1,easy,96,2,0,331.394
1,easy,96,3,1,367.952
1,easy,96,4,1,218.645
1,easy,96,5,1,292.24
1,easy,96,6,1,359.534
1,easy,96,7,0,383.007
1,easy,96,8,1,276.686
1,easy,96,9,1,325.334
1,easy,96,10,0,658.238
1,easy,97,1,1,374.271
1,easy,97,2,0,360
1,easy,97,3,1,375.533
1,easy,97,4,1,205.946
1,easy,97,5,1,309.391
1,easy,97,6,1,314.57
1,easy,97,7,1,336.619
1,easy,97,8,1,269.632
1,easy,97,9,1,345.371
1,easy,97,10,0,764.709
1,easy,98,1,0,443.942
1,easy,98,2,0,368.416
1,easy,98,3,1,340.416
1,easy,98,4,1,182.806
1,easy,98,5,1,303.264
1,easy,98,6,0,420.992
1,easy,98,7,0,379.328
1,easy,98,8,1,268.713
1,easy,98,9,0,410.545
1,easy,98,10,1,559.088
1,easy,99,1,0,435.021
1,easy,99,2,0,374.397
1,easy,99,3,1,371.029
1,easy,99,4,1,187.403
1,easy,99,5,1,283.831
1,easy,99,6,0,374.136
1,easy,99,7,0,408.468
1,easy,99,8,1,289.105
1,easy,99,9,0,455.82
1,easy,99,10,0,693.168
1,easy,100,1,0,455.874
1,easy,100,2,0,363.495
1,easy,100,3,1,363.64
1,easy,100,4,1,213.041
1,easy,100,5,1,297.996
1,easy,100,6,1,339.746
1,easy,100,7,0,415.691
1,easy,100,8,1,228.786
1,easy,100,9,1,362.898
1,easy,100,10,1,628.334
1,easy,101,1,1,366.107
1,easy,101,2,0,365.405
1,easy,101,3,0,403.318
1,easy,101,4,1,197.496
1,easy,101,5,1,306.747
1,easy,101,6,1,349.087
1,easy,101,7,0,433.683
1,easy,101,8,1,277.292
1,easy,101,9,1,330.96
1,easy,101,10,0,636.099
1,easy,102,1,0,435.944
1,easy,102,2,1,285.381
1,easy,102,3,1,397.108
1,easy,102,4,1,203.667
1,easy,102,5,1,340.39
1,easy,102,6,0,396.814
1,easy,102,7,0,398.682
1,easy,102,8,1,240.577
1,easy,102,9,0,418.587
1,easy,102,10,1,576.518
1,easy,103,1,1,365.001
1,easy,103,2,0,352.644
1,easy,103,3,1,364.682
1,easy,103,4,1,206.756
1,easy,103,5,0,333.85
1,easy,103,6,1,320.219
1,easy,103,7,0,411.386
1,easy,103,8,1,292.402
1,easy,103,9,0,412.087
1,easy,103,10,1,582.391
1,easy,104,1,0,421.923
1,easy,104,2,0,368.042
1,easy,104,3,1,394.599
1,easy,104,4,1,216.252
1,easy,104,5,0,357.749
1,easy,104,6,1,327.323
1,easy,104,7,0,375.879
1,easy,104,8,1,265.72
1,easy,104,9,0,415.638
1,easy,104,10,0,672.108
1,easy,105,1,0,422.076
1,easy,105,2,0,365.011
1,easy,105,3,1,386.094
1,easy,105,4,1,211.456
1,easy,105,5,1,295.302
1,easy,105,6,1,320.696
1,easy,105,7,1,343.719
1,easy,105,8,1,245.479
1,easy,105,9,1,359.592
1,easy,105,10,1,579.747
1,easy,106,1,1,380.098
1,easy,106,2,0,361.235
1,easy,106,3,1,354.967
1,easy,106,4,0,258.375
1,easy,106,5,1,284.915
1,easy,106,6,0,416.121
1,easy,106,7,1,321.556
1,easy,106,8,1,263.929
1,easy,106,9,0,430.273
1,easy,106,10,0,742.563
1,easy,107,1,1,366.324
1,easy,107,2,0,357.994
1,easy,107,3,0,456.943
1,easy,107,4,1,209.555
1,easy,107,5,1,301.469
1,easy,107,6,1,345.022
1,easy,107,7,0,415.067
1,easy,107,8,1,260.428
1,easy,107,9,0,482.216
1,easy,107,10,0,666.238
1,easy,108,1,1,368.588
1,easy,108,2,0,331.373
1,easy,108,3,1,382.251
1,easy,108,4,1,204.584
1,easy,108,5,1,307.103
1,easy,108,6,0,377.813
1,easy,108,7,1,318.331
1,easy,108,8,1,267.908
1,easy,108,9,1,357.402
1,easy,108,10,1,512.622
1,easy,109,1,1,331.303
1,easy,109,2,1,297.287
1,easy,109,3,1,380.47
1,easy,109,4,1,215.239
1,easy,109,5,1,301.636
1,easy,109,6,0,401.8
1,easy,109,7,0,400.849
1,easy,109,8,1,288.691
1,easy,109,9,0,442.576
1,easy,109,10,0,667.972
1,easy,110,1,1,332.017
1,easy,110,2,0,332.161
1,easy,110,3,1,351.755
1,easy,110,4,1,199.542
1,easy,110,5,0,376.611
1,easy,110,6,1,328.107
1,easy,110,7,0,383.369
1,easy,110,8,1,288.33
1,easy,110,9,1,358.239
1,easy,110,10,1,585.78
1,easy,111,1,1,367.416
1,easy,111,2,0,334.518
1,easy,111,3,1,345.585
1,easy,111,4,1,205.183
1,easy,111,5,0,356.165
1,easy,111,6,1,325.415
1,easy,111,7,0,424.181
1,easy,111,8,1,269.996
1,easy,111,9,0,441.374
1,easy,111,10,0,674.077
1,easy,112,1,0,445.402
1,easy,112,2,0,335.695
1,easy,112,3,1,344.502
1,easy,112,4,1,207.032
1,easy,112,5,1,290.81
1,easy,112,6,0,424.544
1,easy,112,7,0,444.05
1,easy,112,8,1,262.294
1,easy,112,9,0,439.078
1,easy,112,10,0,703.078
1,easy,113,1,1,334.948
1,easy,113,2,1,297.989
1,easy,113,3,1,352.732
1,easy,113,4,1,208.754
1,easy,113,5,0,372.297
1,easy,113,6,1,310.925
1,easy,113,7,0,388.263
1,easy,113,8,1,267.881
1,easy,113,9,0,455.462
1,easy,113,10,1,594.884
1,easy,114,1,1,351.693
1,easy,114,2,0,361.825
1,easy,114,3,1,352.544
1,easy,114,4,1,211.762
1,easy,114,5,1,307.868
1,easy,114,6,1,344.816
1,easy,114,7,0,418.591
1,easy,114,8,1,260.783
1,easy,114,9,0,418.254
1,easy,114,10,0,729.456
1,easy,115,1,1,330.452
1,easy,115,2,0,359.753
1,easy,115,3,1,375.017
1,easy,115,4,1,199.398
1,easy,115,5,1,281.801
1,easy,115,6,1,313.995
1,easy,115,7,1,364.911
1,easy,115,8,1,298.092
1,easy,115,9,1,352.597
1,easy,115,10,1,558.468
1,easy,116,1,0,430.532
1,easy,116,2,1,303.84
1,easy,116,3,1,344.118
1,easy,116,4,1,206.818
1,easy,116,5,1,324.084
1,easy,116,6,1,370.394
1,easy,116,7,1,316.088
1,easy,116,8,1,276.759
1,easy,116,9,0,452.634
1,easy,116,10,1,563.481
1,easy,117,1,1,350.409
1,easy,117,2,1,305.674
1,easy,117,3,1,356.219
1,easy,117,4,1,195.931
1,easy,117,5,0,332.107
1,easy,117,6,1,325.366
1,easy,117,7,0,380.862
1,easy,117,8,1,262.573
1,easy,117,9,0,425.591
1,easy,117,10,0,651.924
1,easy,118,1,1,358.534
1,easy,118,2,0,366.683
1,easy,118,3,1,369.066
1,easy,118,4,1,200.032
1,easy,118,5,1,306.735
1,easy,118,6,1,305.848
1,easy,118,7,0,400.624
1,easy,118,8,0,348.176
1,easy,118,9,1,388.056
1,easy,118,10,0,695.283
1,easy,119,1,1,364.511
1,easy,119,2,0,362.569
1,easy,119,3,1,375.903
1,easy,119,4,1,201.542
1,easy,119,5,1,306.617
1,easy,119,6,0,440.479
1,easy,119,7,0,373.262
1,easy,119,8,1,286.065
1,easy,119,9,0,426.099
1,easy,119,10,0,613.484
1,easy,120,1,1,382.121
1,easy,120,2,0,406.552
1,easy,120,3,0,421.208
1,easy,120,4,1,217.286
1,easy,120,5,1,303.854
1,easy,120,6,1,328.475
1,easy,120,7,0,404.612
1,easy,120,8,1,294.951
1,easy,120,9,0,455.596
1,easy,120,10,0,705.646
1,easy,121,1,0,420.243
1,easy,121,2,1,291.113
1,easy,121,3,0,465.658
1,easy,121,4,1,194.2
1,easy,121,5,0,370.192
1,easy,121,6,0,388.811
1,easy,121,7,0,398.278
1,easy,121,8,1,275.765
1,easy,121,9,1,366.149
1,easy,121,10,0,711.684
1,easy,122,1,0,467.213
1,easy,122,2,0,379.853
1,easy,122,3,1,363.082
1,easy,122,4,0,262.545
1,easy,122,5,1,293.699
1,easy,122,6,0,417.213
1,easy,122,7,0,424.609
1,easy,122,8,1,269.255
1,easy,122,9,0,441.278
1,easy,122,10,1,572.324
1,easy,123,1,1,392.578
1,easy,123,2,1,303.76
1,easy,123,3,1,353.673
1,easy,123,4,0,261.311
1,easy,123,5,1,290.012
1,easy,123,6,0,420.809
1,easy,123,7,0,419.65
1,easy,123,8,1,264.242
1,easy,123,9,0,444.219
1,easy,123,10,0,702.252
1,easy,124,1,1,331.088
1,easy,124,2,1,292.522
1,easy,124,3,1,357.273
1,easy,124,4,1,211.451
1,easy,124,5,1,279.564
1,easy,124,6,0,387.997
1,easy,124,7,1,338.063
1,easy,124,8,1,263.426
1,easy,124,9,1,364.149
1,easy,124,10,0,702.649
1,easy,125,1,1,347.271
1,easy,125,2,1,280.431
1,easy,125,3,1,383.375
1,easy,125,4,0,271.494
1,easy,125,5,1,288.38
1,easy,125,6,0,403.285
1,easy,125,7,1,360.695
1,easy,125,8,1,280.604
1,easy,125,9,1,338.642
1,easy,125,10,1,549.699
1,easy,126,1,1,329.769
1,easy,126,2,0,355.938
1,easy,126,3,1,349.83
1,easy,126,4,1,192.034
1,easy,126,5,0,379.951
1,easy,126,6,1,320.858
1,easy,126,7,0,404.023
1,easy,126,8,1,291.056
1,easy,126,9,1,353.59
1,easy,126,10,0,701.58
1,easy,127,1,0,455.3
1,easy,127,2,0,396.464
1,easy,127,3,1,364.566
1,easy,127,4,1,193.837
1,easy,127,5,1,314.766
1,easy,127,6,0,371.981
1,easy,127,7,1,337.529
1,easy,127,8,1,286.967
1,easy,127,9,1,346.223
1,easy,127,10,0,670.04
1,easy,128,1,1,371.702
1,easy,128,2,0,352.949
1,easy,128,3,1,363.851
1,easy,128,4,1,206.068
1,easy,128,5,1,305.959
1,easy,128,6,1,315.345
1,easy,128,7,1,331.867
1,easy,128,8,1,271.185
1,easy,128,9,1,347.568
1,easy,128,10,0,758.016
1,easy,129,1,0,462.107
1,easy,129,2,0,356.89
1,easy,129,3,1,354.93
1,easy,129,4,1,197.117
1,easy,129,5,0,352.017
1,easy,129,6,1,325.857
1,easy,129,7,1,346.402
1,easy,129,8,1,263.463
1,easy,129,9,0,444.836
1,easy,129,10,0,733.738
1,easy,130,1,0,448.433
1,easy,130,2,0,345.963
1,easy,130,3,1,364.591
1,easy,130,4,1,208.5
1,easy,130,5,1,287.04
1,easy,130,6,1,328.036
1,easy,130,7,0,404.707
1,easy,130,8,1,271.489
1,easy,130,9,0,439.506
1,easy,130,10,0,722.808
1,easy,131,1,1,382.191
1,easy,131,2,0,370.615
1,easy,131,3,1,345.863
1,easy,131,4,1,206.185
1,easy,131,5,1,318.382
1,easy,131,6,1,324.675
1,easy,131,7,0,376.117
1,easy,131,8,1,248.583
1,easy,131,9,0,378.586
1,easy,131,10,0,698.916
1,easy,132,1,1,366.551
1,easy,132,2,0,340.298
1,easy,132,3,1,330.724
1,easy,132,4,1,190.199
1,easy,132,5,1,311.582
1,easy,132,6,1,312.192
1,easy,132,7,1,349.03
1,easy,132,8,1,275.738
1,easy,132,9,0,426.004
1,easy,132,10,1,573.89
1,easy,133,1,1,361.829
1,easy,133,2,0,358.407
1,easy,133,3,1,362.598
1,easy,133,4,1,187.988
1,easy,133,5,0,351.393
1,easy,133,6,1,346.24
1,easy,133,7,0,400.276
1,easy,133,8,1,252.179
1,easy,133,9,0,420.458
1,easy,133,10,1,553.122
1,easy,134,1,1,376.92
1,easy,134,2,1,289.413
1,easy,134,3,1,377.565
1,easy,134,4,0,224.932
1,easy,134,5,1,285.39
1,easy,134,6,1,355.106
1,easy,134,7,0,419.285
1,easy,134,8,1,274.471
1,easy,134,9,0,435.362
1,easy,134,10,0,633.689
1,easy,135,1,0,460.743
1,easy,135,2,0,362.889
1,easy,135,3,1,377.822
1,easy,135,4,1,209.453
1,easy,135,5,0,359.742
1,easy,135,6,0,390.418
1,easy,135,7,0,381.593
1,easy,135,8,1,253.593
1,easy,135,9,1,388.033
1,easy,135,10,0,740.12
1,easy,136,1,1,357.308
1,easy,136,2,0,390.598
1,easy,136,3,1,324.381
1,easy,136,4,1,214.43
1,easy,136,5,1,308.696
1,easy,136,6,1,358.469
1,easy,136,7,0,371.202
1,easy,136,8,1,256.353
1,easy,136,9,0,444.794
1,easy,136,10,0,669.649
1,easy,137,1,1,358.377
1,easy,137,2,0,340.772
1,easy,137,3,1,361.288
1,easy,137,4,1,204.611
1,easy,137,5,0,364.043
1,easy,137,6,0,440.126
1,easy,137,7,0,423.446
1,easy,137,8,1,242.203
1,easy,137,9,0,412.674
1,easy,137,10,0,690.533
1,easy,138,1,1,335.614
1,easy,138,2,1,304.062
1,easy,138,3,0,461.052
1,easy,138,4,1,193.084
1,easy,138,5,1,321.612
1,easy,138,6,1,343.458
1,easy,138,7,0,415.951
1,easy,138,8,1,268.427
1,easy,138,9,0,469.539
1,easy,138,10,0,735.703
1,easy,139,1,1,350.875
1,easy,139,2,0,346.695
1,easy,139,3,0,437.536
1,easy,139,4,1,208.203
1,easy,139,5,0,393.937
1,easy,139,6,1,330.234
1,easy,139,7,0,412.78
1,easy,139,8,1,287.325
1,easy,139,9,0,461.61
1,easy,139,10,0,664.345
1,easy,140,1,1,375.391
1,easy,140,2,0,370.346
1,easy,140,3,1,390.359
1,easy,140,4,1,215.197
1,easy,140,5,0,385.383
1,easy,140,6,0,374.456
1,easy,140,7,0,427.253
1,easy,140,8,1,264.021
1,easy,140,9,0,467.441
1,easy,140,10,1,519.188
1,easy,141,1,1,333.109
1,easy,141,2,0,323.951
1,easy,141,3,1,339.609
1,easy,141,4,1,208.518
1,easy,141,5,1,292.035
1,easy,141,6,0,425.539
1,easy,141,7,0,434.764
1,easy,141,8,1,267.512
1,easy,141,9,0,422.244
1,easy,141,10,0,633.962
1,easy,142,1,1,381.262
1,easy,142,2,0,337.711
1,easy,142,3,1,372.681
1,easy,142,4,0,281.443
1,easy,142,5,1,321.125
1,easy,142,6,1,333.324
1,easy,142,7,0,424.493
1,easy,142,8,1,282.528
1,easy,142,9,0,463.282
1,easy,142,10,0,729.665
1,easy,143,1,0,441.576
1,easy,143,2,0,357.275
1,easy,143,3,1,356.363
1,easy,143,4,1,191.685
1,easy,143,5,1,300.274
1,easy,143,6,0,409.716
1,easy,143,7,1,348.894
1,easy,143,8,1,262.952
1,easy,143,9,1,342.948
1,easy,143,10,0,716.845
1,easy,144,1,1,365.567
1,easy,144,2,0,371.537
1,easy,144,3,1,377.362
1,easy,144,4,1,204.389
1,easy,144,5,1,294.088
1,easy,144,6,1,314.626
1,easy,144,7,1,363.011
1,easy,144,8,1,283.308
1,easy,144,9,1,373.415
1,easy,144,10,0,665.601
1,easy,145,1,0,463.636
1,easy,145,2,0,350.688
1,easy,145,3,1,366.902
1,easy,145,4,1,201.262
1,easy,145,5,1,314.366
1,easy,145,6,1,295.271
1,easy,145,7,0,412.146
1,easy,145,8,1,255.178
1,easy,145,9,1,364.086
1,easy,145,10,0,717.658
1,easy,146,1,1,372.202
1,easy,146,2,0,346.886
1,easy,146,3,1,361.301
1,easy,146,4,1,198.81
1,easy,146,5,1,286.927
1,easy,146,6,0,431.527
1,easy,146,7,0,404.951
1,easy,146,8,1,265.037
1,easy,146,9,0,443.183
1,easy,146,10,0,671.289
1,easy,147,1,1,396.451
1,easy,147,2,0,374.911
1,easy,147,3,1,378.436
1,easy,147,4,1,201.466
1,easy,147,5,1,294.051
1,easy,147,6,0,398.899
1,easy,147,7,0,420.207
1,easy,147,8,1,264.739
1,easy,147,9,1,374.376
1,easy,147,10,0,715.936
1,easy,148,1,1,348.943
1,easy,148,2,1,298.313
1,easy,148,3,0,439.036
1,easy,148,4,1,198.453
1,easy,148,5,1,307.979
1,easy,148,6,1,332.599
1,easy,148,7,0,424.03
1,easy,148,8,1,240.376
1,easy,148,9,1,365.894
1,easy,148,10,0,716.496
1,easy,149,1,1,353.547
1,easy,149,2,0,347.04
1,easy,149,3,1,366.354
1,easy,149,4,1,195.729
1,easy,149,5,1,302.85
1,easy,149,6,0,378.4
1,easy,149,7,0,377.692
1,easy,149,8,1,260.886
1,easy,149,9,1,374.516
1,easy,149,10,1,538.916
1,easy,150,1,0,433.645
1,easy,150,2,0,334.468
1,easy,150,3,0,459.285
1,easy,150,4,1,206.266
1,easy,150,5,1,313.962
1,easy,150,6,1,350.626
1,easy,150,7,0,389.066
1,easy,150,8,1,254.682
1,easy,150,9,1,350.184
1,easy,150,10,0,717.914
1,easy,151,1,1,328.984
1,easy,151,2,0,337.899
1,easy,151,3,1,346.335
1,easy,151,4,1,203.628
1,easy,151,5,1,322.665
1,easy,151,6,0,410.042
1,easy,151,7,0,385.81
1,easy,151,8,1,257.157
1,easy,151,9,0,421.535
1,easy,151,10,0,719.856
1,easy,152,1,1,345.968
1,easy,152,2,0,371.1
1,easy,152,3,1,353.169
1,easy,152,4,0,261.204
1,easy,152,5,0,407.455
1,easy,152,6,0,425.232
1,easy,152,7,1,334.861
1,easy,152,8,1,264.585
1,easy,152,9,1,320.445
1,easy,152,10,0,717.282
1,easy,153,1,1,353.903
1,easy,153,2,1,286.359
1,easy,153,3,1,360.493
1,easy,153,4,1,213.711
1,easy,153,5,1,313.415
1,easy,153,6,0,420.294
1,easy,153,7,0,384.044
1,easy,153,8,1,263.815
1,easy,153,9,1,337.786
1,easy,153,10,0,777.182
1,easy,154,1,0,483.061
1,easy,154,2,1,277.071
1,easy,154,3,1,340.309
1,easy,154,4,1,207.541
1,easy,154,5,1,274.995
1,easy,154,6,1,330.657
1,easy,154,7,1,338.336
1,easy,154,8,1,255.781
1,easy,154,9,0,471.281
1,easy,154,10,0,747.664
1,easy,155,1,1,332.549
1,easy,155,2,0,330.846
1,easy,155,3,1,380.078
1,easy,155,4,1,204.809
1,easy,155,5,1,308.291
1,easy,155,6,0,406.036
1,easy,155,7,0,374.524
1,easy,155,8,1,262.085
1,easy,155,9,0,444.441
1,easy,155,10,1,548.979
1,easy,156,1,1,369.698
1,easy,156,2,1,291.789
1,easy,156,3,1,365.207
1,easy,156,4,1,218.069
1,easy,156,5,1,322.876
1,easy,156,6,1,296.542
1,easy,156,7,0,398.58
1,easy,156,8,1,274.267
1,easy,156,9,1,326.078
1,easy,156,10,0,699.394
1,easy,157,1,0,437.617
1,easy,157,2,0,359.398
1,easy,157,3,1,354.169
1,easy,157,4,0,223.494
1,easy,157,5,1,316.782
1,easy,157,6,1,329.383
1,easy,157,7,0,408.129
1,easy,157,8,1,278.18
1,easy,157,9,0,396.867
1,easy,157,10,1,560.41
1,easy,158,1,0,437.367
1,easy,158,2,0,342.59
1,easy,158,3,1,394.739
1,easy,158,4,1,195.766
1,easy,158,5,0,386.822
1,easy,158,6,0,397.142
1,easy,158,7,1,347.883
1,easy,158,8,1,274.971
1,easy,158,9,0,408.273
1,easy,158,10,0,714.75
1,easy,159,1,1,382.115
1,easy,159,2,0,362.49
1,easy,159,3,1,384.86
1,easy,159,4,1,200.52
1,easy,159,5,1,304.316
1,easy,159,6,0,386.855
1,easy,159,7,0,405.471
1,easy,159,8,1,270.758
1,easy,159,9,0,433.319
1,easy,159,10,0,693.949
1,easy,160,1,1,343.56
1,easy,160,2,1,283.88
1,easy,160,3,1,346.292
1,easy,160,4,1,224.863
1,easy,160,5,0,384.398
1,easy,160,6,1,349.299
1,easy,160,7,0,393.228
1,easy,160,8,1,249.36
1,easy,160,9,0,441.534
1,easy,160,10,0,752.346
1,easy,161,1,1,326.465
1,easy,161,2,0,350.506
1,easy,161,3,1,381.85
1,easy,161,4,1,219.244
1,easy,161,5,1,288.602
1,easy,161,6,0,438.377
1,easy,161,7,0,423.524
1,easy,161,8,1,247.503
1,easy,161,9,1,390.361
1,easy,161,10,0,679.926
1,easy,162,1,1,380.322
1,easy,162,2,0,364.284
1,easy,162,3,1,375.959
1,easy,162,4,1,191.839
1,easy,162,5,1,307.57
1,easy,162,6,0,394.967
1,easy,162,7,1,346.195
1,easy,162,8,1,262.039
1,easy,162,9,0,427.128
1,easy,162,10,0,676.688
1,easy,163,1,1,369.971
1,easy,163,2,0,357.973
1,easy,163,3,1,394.594
1,easy,163,4,0,257.69
1,easy,163,5,1,329.103
1,easy,163,6,0,405.82
1,easy,163,7,1,336.757
1,easy,163,8,1,265.394
1,easy,163,9,0,434.021
1,easy,163,10,0,708.176
1,easy,164,1,1,364.633
1,easy,164,2,0,367.603
1,easy,164,3,1,346.487
1,easy,164,4,1,201.558
1,easy,164,5,1,295.133
1,easy,164,6,1,311.286
1,easy,164,7,1,338.069
1,easy,164,8,0,333.872
1,easy,164,9,1,358.615
1,easy,164,10,0,740.729
1,easy,165,1,1,380.681
1,easy,165,2,1,271.543
1,easy,165,3,1,348.959
1,easy,165,4,1,210.257
1,easy,165,5,0,353.99
1,easy,165,6,0,372.798
1,easy,165,7,0,358.99
1,easy,165,8,1,290.313
1,easy,165,9,0,421.947
1,easy,165,10,1,557.719
1,easy,166,1,1,359.833
1,easy,166,2,0,334.472
1,easy,166,3,1,348.734
1,easy,166,4,1,205.587
1,easy,166,5,1,295.286
1,easy,166,6,0,412.322
1,easy,166,7,0,356.008
1,easy,166,8,1,254.455
1,easy,166,9,1,400.251
1,easy,166,10,1,573.81
1,easy,167,1,0,453.795
1,easy,167,2,0,339.388
1,easy,167,3,1,351.467
1,easy,167,4,0,259.329
1,easy,167,5,1,321.887
1,easy,167,6,1,336.772
1,easy,167,7,1,346.001
1,easy,167,8,1,259.69
1,easy,167,9,0,426.352
1,easy,167,10,0,689.196
1,easy,168,1,0,446.559
1,easy,168,2,0,377.142
1,easy,168,3,1,375.549
1,easy,168,4,0,241.185
1,easy,168,5,1,304.516
1,easy,168,6,0,418.86
1,easy,168,7,0,453.198
1,easy,168,8,1,266.176
1,easy,168,9,0,433.249
1,easy,168,10,0,655.451
1,easy,169,1,1,384.636
1,easy,169,2,0,358.416
1,easy,169,3,1,342.291
1,easy,169,4,1,203.639
1,easy,169,5,0,384.803
1,easy,169,6,1,354.276
1,easy,169,7,0,388.49
1,easy,169,8,1,254.694
1,easy,169,9,0,435.77
1,easy,169,10,0,727.446
1,easy,170,1,1,383.842
1,easy,170,2,0,356.275
1,easy,170,3,1,355.116
1,easy,170,4,1,199.985
1,easy,170,5,1,298.426
1,easy,170,6,1,320.166
1,easy,170,7,0,397.395
1,easy,170,8,1,288.54
1,easy,170,9,1,378.276
1,easy,170,10,1,567.706
1,easy,171,1,1,374.602
1,easy,171,2,0,386.73
1,easy,171,3,1,353.212
1,easy,171,4,1,188.65
1,easy,171,5,1,291.797
1,easy,171,6,0,383.488
1,easy,171,7,0,373.497
1,easy,171,8,1,255.822
1,easy,171,9,1,337.756
1,easy,171,10,0,712.919
1,easy,172,1,1,372.507
1,easy,172,2,0,318.299
1,easy,172,3,1,398.002
1,easy,172,4,1,195.709
1,easy,172,5,0,358.672
1,easy,172,6,1,313.747
1,easy,172,7,0,399.398
1,easy,172,8,1,263.424
1,easy,172,9,0,455.194
1,easy,172,10,0,654.117
1,easy,173,1,1,381.497
1,easy,173,2,0,355.479
1,easy,173,3,1,382.046
1,easy,173,4,0,269.975
1,easy,173,5,0,359.702
1,easy,173,6,1,334.63
1,easy,173,7,0,382.337
1,easy,173,8,1,254.173
1,easy,173,9,0,424.524
1,easy,173,10,0,693.676
1,easy,174,1,1,387.091
1,easy,174,2,0,388.956
1,easy,174,3,1,363.203
1,easy,174,4,1,203.016
1,easy,174,5,0,393.797
1,easy,174,6,0,388.871
1,easy,174,7,0,418.032
1,easy,174,8,1,258.758
1,easy,174,9,1,346.529
1,easy,174,10,1,618.538
1,easy,175,1,1,344.543
1,easy,175,2,1,279.183
1,easy,175,3,1,389.249
1,easy,175,4,1,201.657
1,easy,175,5,0,382.744
1,easy,175,6,0,413.121
1,easy,175,7,1,322.461
1,easy,175,8,1,268.208
1,easy,175,9,0,422.08
1,easy,175,10,0,697.702
1,easy,176,1,1,339.679
1,easy,176,2,0,372.367
1,easy,176,3,1,362.052
1,easy,176,4,1,215.33
1,easy,176,5,0,362.458
1,easy,176,6,1,315.644
1,easy,176,7,0,394.62
1,easy,176,8,1,276.765
1,easy,176,9,0,415.216
1,easy,176,10,0,723.945
1,easy,177,1,1,348.311
1,easy,177,2,0,358.77
1,easy,177,3,1,334.75
1,easy,177,4,1,182.964
1,easy,177,5,1,295.223
1,easy,177,6,1,306.829
1,easy,177,7,0,389.698
1,easy,177,8,1,270.477
1,easy,177,9,1,368.785
1,easy,177,10,0,691.193
1,easy,178,1,1,363.019
1,easy,178,2,0,363.52
1,easy,178,3,1,346.764
1,easy,178,4,1,227.08
1,easy,178,5,1,279.752
1,easy,178,6,0,384.591
1,easy,178,7,0,384.26
1,easy,178,8,1,259.943
1,easy,178,9,0,435.189
1,easy,178,10,0,696.488
1,easy,179,1,1,347.884
1,easy,179,2,0,343.048
1,easy,179,3,1,402.165
1,easy,179,4,1,203.726
1,easy,179,5,1,315.386
1,easy,179,6,1,304.296
1,easy,179,7,0,393.195
1,easy,179,8,1,252.553
1,easy,179,9,1,342.627
1,easy,179,10,0,716.702
1,easy,180,1,0,442.532
1,easy,180,2,0,372.519
1,easy,180,3,1,354.505
1,easy,180,4,1,185.008
1,easy,180,5,1,316.334
1,easy,180,6,0,407.78
1,easy,180,7,0,441.748
1,easy,180,8,1,269.543
1,easy,180,9,0,407.171
1,easy,180,10,0,669.464
1,easy,181,1,1,364.711
1,easy,181,2,0,359.108
1,easy,181,3,1,363.589
1,easy,181,4,1,207.716
1,easy,181,5,1,302.928
1,easy,181,6,1,334.882
1,easy,181,7,0,422.756
1,easy,181,8,1,273.383
1,easy,181,9,0,434.692
1,easy,181,10,0,686.943
1,easy,182,1,1,369.215
1,easy,182,2,0,376.013
1,easy,182,3,1,360.961
1,easy,182,4,1,219.321
1,easy,182,5,0,396.969
1,easy,182,6,1,338.272
1,easy,182,7,0,395.007
1,easy,182,8,1,277.08
1,easy,182,9,1,344.264
1,easy,182,10,0,691.358
1,easy,183,1,1,384.297
1,easy,183,2,0,361.666
1,easy,183,3,1,365.845
1,easy,183,4,0,256.685
1,easy,183,5,1,302.333
1,easy,183,6,1,319.532
1,easy,183,7,1,316.415
1,easy,183,8,1,261.246
1,easy,183,9,0,439.934
1,easy,183,10,0,654.028
1,easy,184,1,1,338.184
1,easy,184,2,0,366.608
1,easy,184,3,1,359.08
1,easy,184,4,0,266.629
1,easy,184,5,0,354.065
1,easy,184,6,1,354.205
1,easy,184,7,1,361.387
1,easy,184,8,1,292.644
1,easy,184,9,1,344.547
1,easy,184,10,0,729.412
1,easy,185,1,0,456.497
1,easy,185,2,0,349.236
1,easy,185,3,1,345.878
1,easy,185,4,1,212.719
1,easy,185,5,1,294.074
1,easy,185,6,1,338.46
1,easy,185,7,0,417.097
1,easy,185,8,1,258.514
1,easy,185,9,0,448.199
1,easy,185,10,1,568.886
1,easy,186,1,0,441.165
1,easy,186,2,0,360.151
1,easy,186,3,1,371.499
1,easy,186,4,0,250.88
1,easy,186,5,1,297.345
1,easy,186,6,0,396.248
1,easy,186,7,0,419.191
1,easy,186,8,1,267.881
1,easy,186,9,1,344.737
1,easy,186,10,0,704.096
1,easy,187,1,0,447.984
1,easy,187,2,0,378.308
1,easy,187,3,1,374.703
1,easy,187,4,1,193.188
1,easy,187,5,1,292.099
1,easy,187,6,1,331.943
1,easy,187,7,1,322.274
1,easy,187,8,1,251.666
1,easy,187,9,0,468.022
1,easy,187,10,1,525.664
1,easy,188,1,0,440.341
1,easy,188,2,0,354.805
1,easy,188,3,1,367.263
1,easy,188,4,1,219.655
1,easy,188,5,1,303.234
1,easy,188,6,0,412.59
1,easy,188,7,0,393.893
1,easy,188,8,1,274.164
1,easy,188,9,1,348.694
1,easy,188,10,1,599.149
1,easy,189,1,0,417.155
1,easy,189,2,0,341.157
1,easy,189,3,1,366.41
1,easy,189,4,1,201.419
1,easy,189,5,1,305.053
1,easy,189,6,1,327.892
1,easy,189,7,0,393.517
1,easy,189,8,1,279.814
1,easy,189,9,1,365.061
1,easy,189,10,0,719.369
1,easy,190,1,1,372.999
1,easy,190,2,0,364.021
1,easy,190,3,1,369.281
1,easy,190,4,1,208.468
1,easy,190,5,0,353.879
1,easy,190,6,1,328.142
1,easy,190,7,0,406.337
1,easy,190,8,1,275.493
1,easy,190,9,1,365.729
1,easy,190,10,0,674.684
1,easy,191,1,1,357.17
1,easy,191,2,0,315.628
1,easy,191,3,1,363.344
1,easy,191,4,1,199.769
1,easy,191,5,1,307.219
1,easy,191,6,0,426.073
1,easy,191,7,0,393.486
1,easy,191,8,1,271.256
1,easy,191,9,1,377.658
1,easy,191,10,0,683.959
1,easy,192,1,1,336.92
1,easy,192,2,0,372.435
1,easy,192,3,1,347.268
1,easy,192,4,1,206.616
1,easy,192,5,1,285.485
1,easy,192,6,0,396.507
1,easy,192,7,0,365.588
1,easy,192,8,1,269.774
1,easy,192,9,1,367.084
1,easy,192,10,0,671.29
1,easy,193,1,1,389.071
1,easy,193,2,0,364.652
1,easy,193,3,1,374.611
1,easy,193,4,1,203.56
1,easy,193,5,0,379.362
1,easy,193,6,0,412.637
1,easy,193,7,1,310.295
1,easy,193,8,1,247.857
1,easy,193,9,0,419.905
1,easy,193,10,0,727.3
1,easy,194,1,0,430.592
1,easy,194,2,0,333.841
1,easy,194,3,1,376.068
1,easy,194,4,1,205.787
1,easy,194,5,1,287.46
1,easy,194,6,1,330.039
1,easy,194,7,0,417.812
1,easy,194,8,1,282.266
1,easy,194,9,0,399.069
1,easy,194,10,0,703.619
1,easy,195,1,1,383.01
1,easy,195,2,0,374.049
1,easy,195,3,1,372.831
1,easy,195,4,1,208.202
1,easy,195,5,1,316.419
1,easy,195,6,0,438.965
1,easy,195,7,0,409.56
1,easy,195,8,1,257.869
1,easy,195,9,0,457.927
1,easy,195,10,1,584.625
1,easy,196,1,1,358.627
1,easy,196,2,0,333.936
1,easy,196,3,1,348.128
1,easy,196,4,1,209.072
1,easy,196,5,1,307.723
1,easy,196,6,0,390.759
1,easy,196,7,0,422.793
1,easy,196,8,1,257.763
1,easy,196,9,0,485.132
1,easy,196,10,0,683.261
1,easy,197,1,1,353.081
1,easy,197,2,0,350.472
1,easy,197,3,1,351.334
1,easy,197,4,1,206.736
1,easy,197,5,0,386.944
1,easy,197,6,1,350.472
1,easy,197,7,0,408.822
1,easy,197,8,1,277.771
1,easy,197,9,0,411.838
1,easy,197,10,0,685.747
1,easy,198,1,1,371.201
1,easy,198,2,1,306.59
1,easy,198,3,1,325.462
1,easy,198,4,1,185.472
1,easy,198,5,0,372.226
1,easy,198,6,1,309.86
1,easy,198,7,0,381.016
1,easy,198,8,1,261.09
1,easy,198,9,1,350.761
1,easy,198,10,1,556.946
1,easy,199,1,1,372.344
1,easy,199,2,0,322.165
1,easy,199,3,1,394.375
1,easy,199,4,1,230.826
1,easy,199,5,0,362.008
1,easy,199,6,0,413.331
1,easy,199,7,0,419.899
1,easy,199,8,1,261.552
1,easy,199,9,1,366.968
1,easy,199,10,0,700.239
1,easy,200,1,1,365.917
1,easy,200,2,0,399.764
1,easy,200,3,1,404.435
1,easy,200,4,0,232.621
1,easy,200,5,1,315.309
1,easy,200,6,1,325.058
1,easy,200,7,0,375.026
1,easy,200,8,1,271.323
1,easy,200,9,0,426.493
1,easy,200,10,1,528.215
1,easy,201,1,1,366.739
1,easy,201,2,1,300.606
1,easy,201,3,1,420.555
1,easy,201,4,1,219.428
1,easy,201,5,1,297.52
1,easy,201,6,1,338.722
1,easy,201,7,0,411.943
1,easy,201,8,1,283.251
1,easy,201,9,0,443.361
1,easy,201,10,0,682.77
1,easy,202,1,0,431.865
1,easy,202,2,0,361.057
1,easy,202,3,1,364.855
1,easy,202,4,1,209.298
1,easy,202,5,1,305.521
1,easy,202,6,1,338.468
1,easy,202,7,0,410.379
1,easy,202,8,1,276.71
1,easy,202,9,0,445.507
1,easy,202,10,1,552.026
1,easy,203,1,1,334.75
1,easy,203,2,1,292.171
1,easy,203,3,1,362.119
1,easy,203,4,1,194.37
1,easy,203,5,1,292.785
1,easy,203,6,1,312.199
1,easy,203,7,1,332.284
1,easy,203,8,1,270.706
1,easy,203,9,1,374.016
1,easy,203,10,1,572.25
1,easy,204,1,1,371.849
1,easy,204,2,0,339.781
1,easy,204,3,1,359.93
1,easy,204,4,1,209.135
1,easy,204,5,1,312.814
1,easy,204,6,0,413.195
1,easy,204,7,0,404.731
1,easy,204,8,1,261.989
1,easy,204,9,0,445.383
1,easy,204,10,1,608.58
1,easy,205,1,1,338.027
1,easy,205,2,1,304.548
1,easy,205,3,1,372.81
1,easy,205,4,1,204.97
1,easy,205,5,1,278.912
1,easy,205,6,0,403.075
1,easy,205,7,0,403.889
1,easy,205,8,1,258.792
1,easy,205,9,0,471.829
1,easy,205,10,0,686.606
1,easy,206,1,1,375.397
1,easy,206,2,0,337.905
1,easy,206,3,1,353.031
1,easy,206,4,1,207.442
1,easy,206,5,1,284.686
1,easy,206,6,0,391.08
1,easy,206,7,0,434.998
1,easy,206,8,1,290.303
1,easy,206,9,0,468.653
1,easy,206,10,0,694.193
1,easy,207,1,1,332.773
1,easy,207,2,0,367.904
1,easy,207,3,1,384.158
1,easy,207,4,1,207.457
1,easy,207,5,1,312.957
1,easy,207,6,1,316.472
1,easy,207,7,0,410.11
1,easy,207,8,1,245.438
1,easy,207,9,0,494.947
1,easy,207,10,0,669.976
1,easy,208,1,1,346.927
1,easy,208,2,1,300.485
1,easy,208,3,1,368.915
1,easy,208,4,1,204.147
1,easy,208,5,1,327.095
1,easy,208,6,1,349.045
1,easy,208,7,0,456.507
1,easy,208,8,1,251.417
1,easy,208,9,0,458.279
1,easy,208,10,0,644.401
1,easy,209,1,0,451.942
1,easy,209,2,0,354.319
1,easy,209,3,0,470.435
1,easy,209,4,0,253.174
1,easy,209,5,1,307.623
1,easy,209,6,1,325.468
1,easy,209,7,0,409.405
1,easy,209,8,1,261.081
1,easy,209,9,0,448.255
1,easy,209,10,1,570.575
1,easy,210,1,1,362.808
1,easy,210,2,0,342.678
1,easy,210,3,1,326.434
1,easy,210,4,1,205.535
1,easy,210,5,1,324.134
1,easy,210,6,1,341.459
1,easy,210,7,0,437.308
1,easy,210,8,1,278.416
1,easy,210,9,0,440.743
1,easy,210,10,0,667.448
1,easy,211,1,1,357.477
1,easy,211,2,0,340.872
1,easy,211,3,1,374.245
1,easy,211,4,1,210.338
1,easy,211,5,1,313.317
1,easy,211,6,0,388.451
1,easy,211,7,0,422.157
1,easy,211,8,1,262.733
1,easy,211,9,0,472.423
1,easy,211,10,1,562.842
1,easy,212,1,1,359.379
1,easy,212,2,1,286.479
1,easy,212,3,1,369.509
1,easy,212,4,1,208.407
1,easy,212,5,1,308.539
1,easy,212,6,0,405.427
1,easy,212,7,0,407.64
1,easy,212,8,1,256.365
1,easy,212,9,1,358.396
1,easy,212,10,0,657.581
1,easy,213,1,1,340.511
1,easy,213,2,0,342.374
1,easy,213,3,1,373.99
1,easy,213,4,1,203.187
1,easy,213,5,1,302.109
1,easy,213,6,1,308.1
1,easy,213,7,0,379.047
1,easy,213,8,1,256.814
1,easy,213,9,0,415.133
1,easy,213,10,0,705.229
1,easy,214,1,1,384.898
1,easy,214,2,1,297.246
1,easy,214,3,1,373.909
1,easy,214,4,1,204.221
1,easy,214,5,1,290.715
1,easy,214,6,0,404.756
1,easy,214,7,0,406.906
1,easy,214,8,1,266.48
1,easy,214,9,1,372.416
1,easy,214,10,0,724.158
1,easy,215,1,1,345.359
1,easy,215,2,0,399.546
1,easy,215,3,1,344.307
1,easy,215,4,1,209.382
1,easy,215,5,1,329.076
1,easy,215,6,1,327.008
1,easy,215,7,0,407.599
1,easy,215,8,1,253.834
1,easy,215,9,0,422.992
1,easy,215,10,0,630.459
1,easy,216,1,1,378.685
1,easy,216,2,1,299.005
1,easy,216,3,1,368.778
1,easy,216,4,1,207.711
1,easy,216,5,0,336.979
1,easy,216,6,1,341.926
1,easy,216,7,1,302.241
1,easy,216,8,1,237.916
1,easy,216,9,1,358.764
1,easy,216,10,0,691.653
1,easy,217,1,1,348.942
1,easy,217,2,1,277.723
1,easy,217,3,1,373.265
1,easy,217,4,0,250.54
1,easy,217,5,1,295.655
1,easy,217,6,1,342.951
1,easy,217,7,0,425.658
1,easy,217,8,1,247.973
1,easy,217,9,0,408.315
1,easy,217,10,0,697.468
1,easy,218,1,0,450.638
1,easy,218,2,0,363.556
1,easy,218,3,1,347.092
1,easy,218,4,1,190.195
1,easy,218,5,1,325.54
1,easy,218,6,0,393.608
1,easy,218,7,0,423.906
1,easy,218,8,1,264.361
1,easy,218,9,1,338.696
1,easy,218,10,0,704.231
1,easy,219,1,1,375.562
1,easy,219,2,0,376.451
1,easy,219,3,0,435.746
1,easy,219,4,1,201.261
1,easy,219,5,1,306.309
1,easy,219,6,1,317.144
1,easy,219,7,0,399.974
1,easy,219,8,1,273.424
1,easy,219,9,1,363.279
1,easy,219,10,1,537.823
1,easy,220,1,1,365.111
1,easy,220,2,0,341.637
1,easy,220,3,0,444.217
1,easy,220,4,1,193.161
1,easy,220,5,0,378.315
1,easy,220,6,0,393.827
1,easy,220,7,0,425.387
1,easy,220,8,1,256.444
1,easy,220,9,0,475.017
1,easy,220,10,1,624.053
1,easy,221,1,1,374.896
1,easy,221,2,0,361.764
1,easy,221,3,1,383.625
1,easy,221,4,1,210.077
1,easy,221,5,1,296.012
1,easy,221,6,0,419.351
1,easy,221,7,0,418.932
1,easy,221,8,1,233.74
1,easy,221,9,1,350.147
1,easy,221,10,0,618.825
1,easy,222,1,1,389.843
1,easy,222,2,0,317.456
1,easy,222,3,1,353.455
1,easy,222,4,1,211.601
1,easy,222,5,1,305.07
1,easy,222,6,1,320.848
1,easy,222,7,0,423.362
1,easy,222,8,1,245.892
1,easy,222,9,0,446.442
1,easy,222,10,0,672.92
1,easy,223,1,1,341.306
1,easy,223,2,0,335.126
1,easy,223,3,1,368.171
1,easy,223,4,0,247.206
1,easy,223,5,1,277.347
1,easy,223,6,1,345.955
1,easy,223,7,1,311.977
1,easy,223,8,1,265.369
1,easy,223,9,0,434.917
1,easy,223,10,1,538.896
1,easy,224,1,1,376.241
1,easy,224,2,0,339.542
1,easy,224,3,1,370.445
1,easy,224,4,1,230.635
1,easy,224,5,1,289.895
1,easy,224,6,1,327.355
1,easy,224,7,1,360.031
1,easy,224,8,1,253.915
1,easy,224,9,0,426.905
1,easy,224,10,0,687.149
1,easy,225,1,1,399.775
1,easy,225,2,0,339.239
1,easy,225,3,1,358.186
1,easy,225,4,0,239.044
1,easy,225,5,1,296.703
1,easy,225,6,1,324.078
1,easy,225,7,0,388.018
1,easy,225,8,1,314.602
1,easy,225,9,0,437.5
1,easy,225,10,0,729.593
1,easy,226,1,0,501.317
1,easy,226,2,1,287.931
1,easy,226,3,1,357.351
1,easy,226,4,1,213.514
1,easy,226,5,1,291.525
1,easy,226,6,0,427.106
1,easy,226,7,1,299.495
1,easy,226,8,1,271.749
1,easy,226,9,0,440.724
1,easy,226,10,1,575.725
1,easy,227,1,1,415.302
1,easy,227,2,0,369.96
1,easy,227,3,1,391.164
1,easy,227,4,1,215.412
1,easy,227,5,1,297.7
1,easy,227,6,1,331.785
1,easy,227,7,1,325.737
1,easy,227,8,1,295.121
1,easy,227,9,1,378.506
1,easy,227,10,0,683.47
1,easy,228,1,1,358.037
1,easy,228,2,0,361.538
1,easy,228,3,1,356.557
1,easy,228,4,1,210.721
1,easy,228,5,0,321.764
1,easy,228,6,0,436.901
1,easy,228,7,0,411.391
1,easy,228,8,1,273.042
1,easy,228,9,0,443.746
1,easy,228,10,0,690.241
1,easy,229,1,1,378.653
1,easy,229,2,0,365.396
1,easy,229,3,1,358.196
1,easy,229,4,1,203.597
1,easy,229,5,1,314.2
1,easy,229,6,0,388.58
1,easy,229,7,1,329.941
1,easy,229,8,1,275.826
1,easy,229,9,1,350.766
1,easy,229,10,0,721.948
1,easy,230,1,1,364.485
1,easy,230,2,0,363.163
1,easy,230,3,1,368.271
1,easy,230,4,0,233.815
1,easy,230,5,1,313.15
1,easy,230,6,0,410.741
1,easy,230,7,0,425.513
1,easy,230,8,1,250.538
1,easy,230,9,1,361.251
1,easy,230,10,1,529.167
1,easy,231,1,0,459.359
1,easy,231,2,0,338.384
1,easy,231,3,1,389.379
1,easy,231,4,1,205.291
1,easy,231,5,1,300.364
1,easy,231,6,1,322.435
1,easy,231,7,0,407.86
1,easy,231,8,1,280.468
1,easy,231,9,0,429.434
1,easy,231,10,0,695.548
1,easy,232,1,0,458.601
1,easy,232,2,1,266.799
1,easy,232,3,1,394.352
1,easy,232,4,1,197.761
1,easy,232,5,1,302.325
1,easy,232,6,1,349.206
1,easy,232,7,0,399.953
1,easy,232,8,1,268.857
1,easy,232,9,0,428.762
1,easy,232,10,1,623.115
1,easy,233,1,0,442.741
1,easy,233,2,0,356.89
1,easy,233,3,1,353.517
1,easy,233,4,1,209.174
1,easy,233,5,1,326.44
1,easy,233,6,1,319.033
1,easy,233,7,1,367.394
1,easy,233,8,0,347.57
1,easy,233,9,0,427.534
1,easy,233,10,0,720.161
1,easy,234,1,1,372.872
1,easy,234,2,0,360.44
1,easy,234,3,1,359.792
1,easy,234,4,1,221.777
1,easy,234,5,1,279.17
1,easy,234,6,1,377.612
1,easy,234,7,0,407.481
1,easy,234,8,1,261.427
1,easy,234,9,0,427.76
1,easy,234,10,1,574.396
1,easy,235,1,1,371.419
1,easy,235,2,0,339.282
1,easy,235,3,1,360.65
1,easy,235,4,1,198.348
1,easy,235,5,1,288.479
1,easy,235,6,0,439.144
1,easy,235,7,1,313.605
1,easy,235,8,1,275.598
1,easy,235,9,0,417.297
1,easy,235,10,1,604.99
1,easy,236,1,1,402.238
1,easy,236,2,0,353.553
1,easy,236,3,0,455.928
1,easy,236,4,1,205.344
1,easy,236,5,1,339.174
1,easy,236,6,0,389.276
1,easy,236,7,0,433.892
1,easy,236,8,1,270.861
1,easy,236,9,0,465.738
1,easy,236,10,1,508.69
1,easy,237,1,1,394.492
1,easy,237,2,0,364.815
1,easy,237,3,1,358.004
1,easy,237,4,1,212.74
1,easy,237,5,1,315.721
1,easy,237,6,1,358.278
1,easy,237,7,0,393.652
1,easy,237,8,1,262.02
1,easy,237,9,0,478.001
1,easy,237,10,1,650.887
1,easy,238,1,1,360.764
1,easy,238,2,1,291.749
1,easy,238,3,1,365.818
1,easy,238,4,1,212.243
1,easy,238,5,1,303.38
1,easy,238,6,0,375.396
1,easy,238,7,0,429.79
1,easy,238,8,1,263.547
1,easy,238,9,1,339.614
1,easy,238,10,0,697.147
1,easy,239,1,1,363.28
1,easy,239,2,0,384.387
1,easy,239,3,1,333.625
1,easy,239,4,1,207.592
1,easy,239,5,1,300.27
1,easy,239,6,0,404.63
1,easy,239,7,1,325.844
1,easy,239,8,1,252.279
1,easy,239,9,0,446.13
1,easy,239,10,0,782.057
1,easy,240,1,1,326.996
1,easy,240,2,1,342.694
1,easy,240,3,1,362.822
1,easy,240,4,1,209.622
1,easy,240,5,1,313.88
1,easy,240,6,1,355.615
1,easy,240,7,0,395.592
1,easy,240,8,1,259.818
1,easy,240,9,0,435.71
1,easy,240,10,0,709.386
1,hard,1,1,1,504.005
1,hard,1,2,0,506.86
1,hard,1,3,1,487.841
1,hard,1,4,1,277.346
1,hard,1,5,1,383.128
1,hard,1,6,0,513.931
1,hard,1,7,1,467.152
1,hard,1,8,0,456.899
1,hard,1,9,0,607.419
1,hard,1,10,0,1014.067
1,hard,2,1,0,622.024
1,hard,2,2,1,433.827
1,hard,2,3,1,524.636
1,hard,2,4,1,301.621
1,hard,2,5,0,490.814
1,hard,2,6,1,482.063
1,hard,2,7,0,604.722
1,hard,2,8,1,362.879
1,hard,2,9,0,614.077
1,hard,2,10,1,857.804
1,hard,3,1,1,480.207
1,hard,3,2,0,511.023
1,hard,3,3,0,665.011
1,hard,3,4,1,261.064
1,hard,3,5,1,432.269
1,hard,3,6,1,432.72
1,hard,3,7,1,454.2
1,hard,3,8,1,339.877
1,hard,3,9,0,599.363
1,hard,3,10,0,985.496
1,hard,4,1,1,547.582
1,hard,4,2,1,398.831
1,hard,4,3,1,545.086
1,hard,4,4,1,267.513
1,hard,4,5,1,462.734
1,hard,4,6,0,525.366
1,hard,4,7,1,473.687
1,hard,4,8,1,384.217
1,hard,4,9,1,484.779
1,hard,4,10,1,796.099
1,hard,5,1,0,607.315
1,hard,5,2,1,421.705
1,hard,5,3,1,506.349
1,hard,5,4,1,274.834
1,hard,5,5,1,425.293
1,hard,5,6,1,496.974
1,hard,5,7,0,525.427
1,hard,5,8,1,349.128
1,hard,5,9,0,609.83
1,hard,5,10,1,761.418
1,hard,6,1,1,469.706
1,hard,6,2,0,507.227
1,hard,6,3,1,495.472
1,hard,6,4,1,272.008
1,hard,6,5,1,428.478
1,hard,6,6,0,534.542
1,hard,6,7,0,568.818
1,hard,6,8,1,366.645
1,hard,6,9,0,650.71
1,hard,6,10,0,1076.954
1,hard,7,1,1,515.708
1,hard,7,2,1,417.94
1,hard,7,3,1,529.286
1,hard,7,4,1,279.978
1,hard,7,5,1,415.62
1,hard,7,6,1,497.371
1,hard,7,7,0,534.998
1,hard,7,8,1,379.398
1,hard,7,9,1,525.27
1,hard,7,10,0,878.642
1,hard,8,1,0,584.036
1,hard,8,2,0,492.039
1,hard,8,3,1,504.657
1,hard,8,4,0,364.865
1,hard,8,5,1,406.452
1,hard,8,6,0,556.261
1,hard,8,7,0,538.118
1,hard,8,8,1,358.943
1,hard,8,9,0,631.749
1,hard,8,10,0,1066.141
1,hard,9,1,0,596.112
1,hard,9,2,0,492.85
1,hard,9,3,1,549.387
1,hard,9,4,1,306.534
1,hard,9,5,1,412.496
1,hard,9,6,1,453.973
1,hard,9,7,1,468.936
1,hard,9,8,1,383.158
1,hard,9,9,0,652.562
1,hard,9,10,0,1049.259
1,hard,10,1,1,530.318
1,hard,10,2,0,519.146
1,hard,10,3,1,471.94
1,hard,10,4,1,292.075
1,hard,10,5,1,426.526
1,hard,10,6,1,468.131
1,hard,10,7,0,563.136
1,hard,10,8,1,372.312
1,hard,10,9,1,520.154
1,hard,10,10,0,877.866
1,hard,11,1,1,463.821
1,hard,11,2,0,537.506
1,hard,11,3,1,534.207
1,hard,11,4,1,287.402
1,hard,11,5,0,538.645
1,hard,11,6,1,457.674
1,hard,11,7,1,451.611
1,hard,11,8,1,333.607
1,hard,11,9,0,627.192
1,hard,11,10,1,737.314
1,hard,12,1,1,554.96
1,hard,12,2,0,459.913
1,hard,12,3,1,501.557
1,hard,12,4,0,340.359
1,hard,12,5,1,409.871
1,hard,12,6,1,482.408
1,hard,12,7,0,548.629
1,hard,12,8,1,358.368
1,hard,12,9,0,597.458
1,hard,12,10,1,788.345
1,hard,13,1,1,550.35
1,hard,13,2,0,488.593
1,hard,13,3,1,513.563
1,hard,13,4,1,266.329
1,hard,13,5,1,420.522
1,hard,13,6,0,570.029
1,hard,13,7,0,573.026
1,hard,13,8,1,373.546
1,hard,13,9,0,645.688
1,hard,13,10,0,987.178
1,hard,14,1,0,559.895
1,hard,14,2,0,517.277
1,hard,14,3,1,514.547
1,hard,14,4,1,306.073
1,hard,14,5,1,425.567
1,hard,14,6,1,446.688
1,hard,14,7,1,477.108
1,hard,14,8,1,360.251
1,hard,14,9,1,521.876
1,hard,14,10,0,1063.986
1,hard,15,1,1,524.826
1,hard,15,2,1,408.931
1,hard,15,3,1,527.48
1,hard,15,4,1,279.315
1,hard,15,5,1,443.069
1,hard,15,6,1,467.341
1,hard,15,7,0,557.086
1,hard,15,8,1,373.764
1,hard,15,9,1,459.517
1,hard,15,10,0,962.116
1,hard,16,1,1,523.605
1,hard,16,2,0,506.92
1,hard,16,3,1,495.103
1,hard,16,4,1,271.575
1,hard,16,5,1,420.534
1,hard,16,6,1,459.667
1,hard,16,7,0,594.15
1,hard,16,8,1,369.412
1,hard,16,9,0,625.98
1,hard,16,10,0,1013.493
1,hard,17,1,1,573.739
1,hard,17,2,0,500.662
1,hard,17,3,1,496.905
1,hard,17,4,1,301.034
1,hard,17,5,1,443.734
1,hard,17,6,1,472.182
1,hard,17,7,0,528.724
1,hard,17,8,1,353.714
1,hard,17,9,0,621.821
1,hard,17,10,1,791.657
1,hard,18,1,0,685.142
1,hard,18,2,0,483.869
1,hard,18,3,1,484.374
1,hard,18,4,1,270.019
1,hard,18,5,1,416.825
1,hard,18,6,1,465.202
1,hard,18,7,1,481.593
1,hard,18,8,1,353.288
1,hard,18,9,0,582.318
1,hard,18,10,1,767.855
1,hard,19,1,1,481.259
1,hard,19,2,1,406.346
1,hard,19,3,1,544.646
1,hard,19,4,1,257.177
1,hard,19,5,0,481.889
1,hard,19,6,0,579.736
1,hard,19,7,0,543.279
1,hard,19,8,1,355.828
1,hard,19,9,1,492.294
1,hard,19,10,0,966.373
1,hard,20,1,1,513.47
1,hard,20,2,0,493.087
1,hard,20,3,1,499.657
1,hard,20,4,1,304.13
1,hard,20,5,0,532.736
1,hard,20,6,1,470.997
1,hard,20,7,1,530.197
1,hard,20,8,1,368.266
1,hard,20,9,1,505.517
1,hard,20,10,0,985.598
1,hard,21,1,1,481.375
1,hard,21,2,0,536.115
1,hard,21,3,1,524.895
1,hard,21,4,1,295.414
1,hard,21,5,1,424.814
1,hard,21,6,1,414.459
1,hard,21,7,1,451.097
1,hard,21,8,1,392.11
1,hard,21,9,0,596.597
1,hard,21,10,1,791.358
1,hard,22,1,0,604.203
1,hard,22,2,0,503.89
1,hard,22,3,1,528.988
1,hard,22,4,1,273.77
1,hard,22,5,1,428.862
1,hard,22,6,1,460.945
1,hard,22,7,0,585.125
1,hard,22,8,1,364.133
1,hard,22,9,1,485.741
1,hard,22,10,0,983.398
1,hard,23,1,1,488.807
1,hard,23,2,1,379.575
1,hard,23,3,1,522.359
1,hard,23,4,1,291.579
1,hard,23,5,0,500.61
1,hard,23,6,1,453.144
1,hard,23,7,0,571.494
1,hard,23,8,1,373.167
1,hard,23,9,0,651.788
1,hard,23,10,0,938.715
1,hard,24,1,0,617.631
1,hard,24,2,0,455.58
1,hard,24,3,1,521.955
1,hard,24,4,1,293.422
1,hard,24,5,1,385.337
1,hard,24,6,0,572.676
1,hard,24,7,0,571.392
1,hard,24,8,1,372.22
1,hard,24,9,0,582.507
1,hard,24,10,0,1044.893
1,hard,25,1,0,601.121
1,hard,25,2,1,362.479
1,hard,25,3,1,512.057
1,hard,25,4,1,276.823
1,hard,25,5,0,506.733
1,hard,25,6,1,457.984
1,hard,25,7,0,571.734
1,hard,25,8,1,409.173
1,hard,25,9,0,617.594
1,hard,25,10,1,831.669
1,hard,26,1,0,630.942
1,hard,26,2,0,488.816
1,hard,26,3,0,624.463
1,hard,26,4,1,284.284
1,hard,26,5,1,432.552
1,hard,26,6,1,428.096
1,hard,26,7,0,564.738
1,hard,26,8,1,381.386
1,hard,26,9,0,590.965
1,hard,26,10,1,812.616
1,hard,27,1,1,496.577
1,hard,27,2,1,389.276
1,hard,27,3,1,502.619
1,hard,27,4,1,285.309
1,hard,27,5,0,501.578
1,hard,27,6,1,445.724
1,hard,27,7,0,575.382
1,hard,27,8,1,358.932
1,hard,27,9,0,635.879
1,hard,27,10,0,945.817
1,hard,28,1,1,503.753
1,hard,28,2,0,511.547
1,hard,28,3,1,501.491
1,hard,28,4,1,303.346
1,hard,28,5,1,403.079
1,hard,28,6,1,451.62
1,hard,28,7,0,541.959
1,hard,28,8,0,447.069
1,hard,28,9,0,612.089
1,hard,28,10,1,812.776
1,hard,29,1,1,518.357
1,hard,29,2,0,512.09
1,hard,29,3,1,491.828
1,hard,29,4,1,278.509
1,hard,29,5,1,434.001
1,hard,29,6,1,451.695
1,hard,29,7,0,527.624
1,hard,29,8,1,385.253
1,hard,29,9,0,564.651
1,hard,29,10,0,894.539
1,hard,30,1,1,488.184
1,hard,30,2,1,409.36
1,hard,30,3,1,557.934
1,hard,30,4,1,281.963
1,hard,30,5,1,459.188
1,hard,30,6,0,556.689
1,hard,30,7,0,574.648
1,hard,30,8,1,367.735
1,hard,30,9,1,492.567
1,hard,30,10,0,899.132
1,hard,31,1,1,530.86
1,hard,31,2,0,485.896
1,hard,31,3,1,565.9
1,hard,31,4,0,344.492
1,hard,31,5,0,514.767
1,hard,31,6,0,569.227
1,hard,31,7,0,551.332
1,hard,31,8,1,373.677
1,hard,31,9,1,476.571
1,hard,31,10,0,973.094
1,hard,32,1,0,629.756
1,hard,32,2,0,536.917
1,hard,32,3,1,499.33
1,hard,32,4,0,346.219
1,hard,32,5,0,495.439
1,hard,32,6,1,474.189
1,hard,32,7,0,565.407
1,hard,32,8,1,344.326
1,hard,32,9,0,563.011
1,hard,32,10,0,918.148
1,hard,33,1,1,519.08
1,hard,33,2,0,483.514
1,hard,33,3,1,496.601
1,hard,33,4,0,341.409
1,hard,33,5,1,438.608
1,hard,33,6,1,418.396
1,hard,33,7,0,558.282
1,hard,33,8,1,370.995
1,hard,33,9,0,614.758
1,hard,33,10,0,974.218
1,hard,34,1,1,554.617
1,hard,34,2,0,475.363
1,hard,34,3,1,529.935
1,hard,34,4,1,288.468
1,hard,34,5,0,540.348
1,hard,34,6,1,472.39
1,hard,34,7,0,613.189
1,hard,34,8,1,377.174
1,hard,34,9,1,492.534
1,hard,34,10,0,983.496
1,hard,35,1,0,561.026
1,hard,35,2,0,495.192
1,hard,35,3,1,496.174
1,hard,35,4,1,287.102
1,hard,35,5,1,406.859
1,hard,35,6,0,568.775
1,hard,35,7,0,557.954
1,hard,35,8,1,414.512
1,hard,35,9,0,600.77
1,hard,35,10,0,901.246
1,hard,36,1,0,626.389
1,hard,36,2,0,531.399
1,hard,36,3,0,640.892
1,hard,36,4,1,301.543
1,hard,36,5,1,452.211
1,hard,36,6,1,489.801
1,hard,36,7,0,545.548
1,hard,36,8,1,370.744
1,hard,36,9,0,591.452
1,hard,36,10,0,944.761
1,hard,37,1,1,496.131
1,hard,37,2,0,493.82
1,hard,37,3,1,485.472
1,hard,37,4,1,270.19
1,hard,37,5,1,444.303
1,hard,37,6,0,560.578
1,hard,37,7,0,549.872
1,hard,37,8,1,373.598
1,hard,37,9,1,529.629
1,hard,37,10,1,808.802
1,hard,38,1,1,511.821
1,hard,38,2,0,506.076
1,hard,38,3,1,511.92
1,hard,38,4,1,309.825
1,hard,38,5,1,430.226
1,hard,38,6,0,549.587
1,hard,38,7,0,569.317
1,hard,38,8,1,392.321
1,hard,38,9,1,488.593
1,hard,38,10,0,928.201
1,hard,39,1,0,578.814
1,hard,39,2,0,474.638
1,hard,39,3,1,540.672
1,hard,39,4,1,286.651
1,hard,39,5,1,408.577
1,hard,39,6,0,569.355
1,hard,39,7,0,587.827
1,hard,39,8,1,384.775
1,hard,39,9,0,633.018
1,hard,39,10,0,976.028
1,hard,40,1,1,489.871
1,hard,40,2,1,379.67
1,hard,40,3,1,516.168
1,hard,40,4,1,284.957
1,hard,40,5,1,390.457
1,hard,40,6,1,514.675
1,hard,40,7,1,488.058
1,hard,40,8,1,356.088
1,hard,40,9,0,614.391
1,hard,40,10,0,1031.515
1,hard,41,1,1,503.466
1,hard,41,2,0,506.519
1,hard,41,3,1,573.75
1,hard,41,4,1,272.977
1,hard,41,5,0,491.198
1,hard,41,6,1,452.906
1,hard,41,7,0,555.54
1,hard,41,8,1,365.626
1,hard,41,9,0,579.983
1,hard,41,10,0,946.237
1,hard,42,1,1,532.862
1,hard,42,2,1,400.045
1,hard,42,3,1,507.767
1,hard,42,4,0,357.807
1,hard,42,5,1,443.231
1,hard,42,6,1,438.694
1,hard,42,7,0,552.99
1,hard,42,8,1,373.453
1,hard,42,9,0,564.556
1,hard,42,10,0,977.115
1,hard,43,1,1,518.534
1,hard,43,2,1,380.069
1,hard,43,3,1,528.391
1,hard,43,4,1,274.18
1,hard,43,5,1,487.663
1,hard,43,6,1,491.455
1,hard,43,7,1,465.377
1,hard,43,8,1,349.906
1,hard,43,9,0,655.711
1,hard,43,10,1,837.95
1,hard,44,1,0,615.785
1,hard,44,2,0,477.737
1,hard,44,3,1,522.853
1,hard,44,4,1,294.816
1,hard,44,5,1,417.41
1,hard,44,6,1,451.119
1,hard,44,7,0,533.369
1,hard,44,8,1,361.1
1,hard,44,9,0,597.21
1,hard,44,10,0,967.53
1,hard,45,1,1,507.596
1,hard,45,2,0,472.661
1,hard,45,3,1,482.246
1,hard,45,4,1,308.084
1,hard,45,5,1,391.703
1,hard,45,6,1,446.127
1,hard,45,7,0,576.116
1,hard,45,8,1,338.108
1,hard,45,9,0,654.823
1,hard,45,10,0,972.019
1,hard,46,1,0,591.74
1,hard,46,2,0,510.709
1,hard,46,3,1,499.952
1,hard,46,4,1,268.424
1,hard,46,5,1,426.674
1,hard,46,6,1,471.403
1,hard,46,7,0,544.363
1,hard,46,8,1,368.138
1,hard,46,9,0,580.912
1,hard,46,10,0,1008.486
1,hard,47,1,1,482.658
1,hard,47,2,0,463.29
1,hard,47,3,1,499.515
1,hard,47,4,1,296.71
1,hard,47,5,0,536.367
1,hard,47,6,0,566.506
1,hard,47,7,0,526.238
1,hard,47,8,1,383.055
1,hard,47,9,0,667.102
1,hard,47,10,0,935.748
1,hard,48,1,1,510.579
1,hard,48,2,0,497.442
1,hard,48,3,1,474.155
1,hard,48,4,0,353.012
1,hard,48,5,1,443.126
1,hard,48,6,0,593.753
1,hard,48,7,0,550.799
1,hard,48,8,1,381.214
1,hard,48,9,0,625.773
1,hard,48,10,0,982.42
1,hard,49,1,1,464.632
1,hard,49,2,0,477.74
1,hard,49,3,1,541.746
1,hard,49,4,1,274.106
1,hard,49,5,1,454.276
1,hard,49,6,1,422.278
1,hard,49,7,0,607.893
1,hard,49,8,1,376.256
1,hard,49,9,1,514.411
1,hard,49,10,0,917.208
1,hard,50,1,1,517.551
1,hard,50,2,1,405.28
1,hard,50,3,1,504.178
1,hard,50,4,1,267.255
1,hard,50,5,1,414.447
1,hard,50,6,1,438.768
1,hard,50,7,0,593.7
1,hard,50,8,1,369.221
1,hard,50,9,1,424.946
1,hard,50,10,0,977.126
1,hard,51,1,1,530.005
1,hard,51,2,0,492.578
1,hard,51,3,1,494.309
1,hard,51,4,1,284.613
1,hard,51,5,1,364.071
1,hard,51,6,1,476.679
1,hard,51,7,0,556.588
1,hard,51,8,1,346.955
1,hard,51,9,0,609.766
1,hard,51,10,0,1057.904
1,hard,52,1,1,535.901
1,hard,52,2,0,485.814
1,hard,52,3,1,454.731
1,hard,52,4,1,290.196
1,hard,52,5,1,457.243
1,hard,52,6,1,517.608
1,hard,52,7,1,456.053
1,hard,52,8,1,357.46
1,hard,52,9,0,557
1,hard,52,10,1,875.725
1,hard,53,1,1,476.127
1,hard,53,2,0,482.881
1,hard,53,3,1,504.411
1,hard,53,4,1,284.796
1,hard,53,5,1,432.716
1,hard,53,6,1,441.165
1,hard,53,7,1,459.523
1,hard,53,8,1,358.847
1,hard,53,9,0,607.639
1,hard,53,10,0,1107.188
1,hard,54,1,1,472.593
1,hard,54,2,0,484.472
1,hard,54,3,1,497.25
1,hard,54,4,1,279.319
1,hard,54,5,0,523.073
1,hard,54,6,0,560.749
1,hard,54,7,0,525.948
1,hard,54,8,1,379.227
1,hard,54,9,1,522.191
1,hard,54,10,1,903.72
1,hard,55,1,1,521.647
1,hard,55,2,0,499.205
1,hard,55,3,1,515.703
1,hard,55,4,0,389.059
1,hard,55,5,0,533.541
1,hard,55,6,1,473.739
1,hard,55,7,0,555.273
1,hard,55,8,1,342.227
1,hard,55,9,0,580.903
1,hard,55,10,0,997.875
1,hard,56,1,1,509.455
1,hard,56,2,1,392.49
1,hard,56,3,1,517.159
1,hard,56,4,1,286.821
1,hard,56,5,1,417.4
1,hard,56,6,0,523.259
1,hard,56,7,1,487.926
1,hard,56,8,1,385.219
1,hard,56,9,1,486.522
1,hard,56,10,1,860.408
1,hard,57,1,1,536.724
1,hard,57,2,1,422.219
1,hard,57,3,1,503.447
1,hard,57,4,1,305.481
1,hard,57,5,1,400.751
1,hard,57,6,1,472.01
1,hard,57,7,0,580.732
1,hard,57,8,0,457.656
1,hard,57,9,1,512.103
1,hard,57,10,1,787.043
1,hard,58,1,1,538.615
1,hard,58,2,1,378.743
1,hard,58,3,1,516.031
1,hard,58,4,1,257.163
1,hard,58,5,0,480.07
1,hard,58,6,1,461.212
1,hard,58,7,0,585.876
1,hard,58,8,1,392.048
1,hard,58,9,1,513.674
1,hard,58,10,0,947.673
1,hard,59,1,1,491.444
1,hard,59,2,0,493.35
1,hard,59,3,1,504.108
1,hard,59,4,0,368.701
1,hard,59,5,1,423.194
1,hard,59,6,0,579.464
1,hard,59,7,0,569.182
1,hard,59,8,1,363.392
1,hard,59,9,0,607.63
1,hard,59,10,0,967.348
1,hard,60,1,1,519.586
1,hard,60,2,0,446.89
1,hard,60,3,1,550.957
1,hard,60,4,1,285.882
1,hard,60,5,1,436.698
1,hard,60,6,1,502.895
1,hard,60,7,0,587.786
1,hard,60,8,1,422.194
1,hard,60,9,0,671.392
1,hard,60,10,0,921.726
1,hard,61,1,0,641.418
1,hard,61,2,0,476.549
1,hard,61,3,1,499.893
1,hard,61,4,0,340.336
1,hard,61,5,1,442.164
1,hard,61,6,0,564.633
1,hard,61,7,1,415.254
1,hard,61,8,1,354.812
1,hard,61,9,1,470.736
1,hard,61,10,1,883.647
1,hard,62,1,1,479.203
1,hard,62,2,0,482.013
1,hard,62,3,1,500.081
1,hard,62,4,1,252.059
1,hard,62,5,1,410.625
1,hard,62,6,1,423.529
1,hard,62,7,0,589.326
1,hard,62,8,1,391.433
1,hard,62,9,1,484.106
1,hard,62,10,0,1034.407
1,hard,63,1,0,662.09
1,hard,63,2,0,490.234
1,hard,63,3,1,555.275
1,hard,63,4,1,266.117
1,hard,63,5,1,419.68
1,hard,63,6,1,472.725
1,hard,63,7,0,550.365
1,hard,63,8,1,376.553
1,hard,63,9,0,582
1,hard,63,10,0,1033.693
1,hard,64,1,1,491.652
1,hard,64,2,1,404.293
1,hard,64,3,1,479.037
1,hard,64,4,1,278.411
1,hard,64,5,1,423.42
1,hard,64,6,1,453.748
1,hard,64,7,0,544.477
1,hard,64,8,1,359.416
1,hard,64,9,1,478.172
1,hard,64,10,0,885.407
1,hard,65,1,1,521.442
1,hard,65,2,0,536.782
1,hard,65,3,1,491.32
1,hard,65,4,1,258.525
1,hard,65,5,1,425.944
1,hard,65,6,0,547.331
1,hard,65,7,0,586.434
1,hard,65,8,1,340.839
1,hard,65,9,0,602.732
1,hard,65,10,0,1034.489
1,hard,66,1,1,533.62
1,hard,66,2,0,502.542
1,hard,66,3,1,492.575
1,hard,66,4,1,287.999
1,hard,66,5,0,525.8
1,hard,66,6,0,526.115
1,hard,66,7,1,445.436
1,hard,66,8,1,342.167
1,hard,66,9,0,626.672
1,hard,66,10,1,760.515
1,hard,67,1,1,543.284
1,hard,67,2,0,503.713
1,hard,67,3,1,479.865
1,hard,67,4,0,351.759
1,hard,67,5,0,482.596
1,hard,67,6,1,466.155
1,hard,67,7,1,457.976
1,hard,67,8,1,370.761
1,hard,67,9,0,663.445
1,hard,67,10,1,810.359
1,hard,68,1,1,534.483
1,hard,68,2,0,496.853
1,hard,68,3,1,541.496
1,hard,68,4,1,309.695
1,hard,68,5,1,443.013
1,hard,68,6,0,585.282
1,hard,68,7,1,438.208
1,hard,68,8,1,406.901
1,hard,68,9,0,606.937
1,hard,68,10,0,999.133
1,hard,69,1,1,507.097
1,hard,69,2,1,408.204
1,hard,69,3,1,447.757
1,hard,69,4,1,302.697
1,hard,69,5,0,460.974
1,hard,69,6,0,603.056
1,hard,69,7,0,553.617
1,hard,69,8,1,374.009
1,hard,69,9,1,500.222
1,hard,69,10,0,960.591
1,hard,70,1,1,487.895
1,hard,70,2,0,495.011
1,hard,70,3,0,672.523
1,hard,70,4,0,353.503
1,hard,70,5,1,445.599
1,hard,70,6,1,477.014
1,hard,70,7,0,570.227
1,hard,70,8,1,379.747
1,hard,70,9,1,474.934
1,hard,70,10,0,934.097
1,hard,71,1,0,633.345
1,hard,71,2,0,488.902
1,hard,71,3,1,504.714
1,hard,71,4,1,302.534
1,hard,71,5,0,520.503
1,hard,71,6,0,565.292
1,hard,71,7,0,557.968
1,hard,71,8,1,388.923
1,hard,71,9,0,580.213
1,hard,71,10,0,1027.02
1,hard,72,1,1,483.659
1,hard,72,2,1,394.559
1,hard,72,3,1,508.373
1,hard,72,4,1,284.798
1,hard,72,5,0,482.221
1,hard,72,6,0,587.17
1,hard,72,7,0,495.341
1,hard,72,8,1,376.336
1,hard,72,9,1,463.746
1,hard,72,10,0,1055.698
1,hard,73,1,1,551.767
1,hard,73,2,0,488.497
1,hard,73,3,1,494.705
1,hard,73,4,0,349.425
1,hard,73,5,1,438.142
1,hard,73,6,1,462.96
1,hard,73,7,0,565.783
1,hard,73,8,1,382.734
1,hard,73,9,0,610.592
1,hard,73,10,0,1004.327
1,hard,74,1,1,512.408
1,hard,74,2,0,478.408
1,hard,74,3,1,517.461
1,hard,74,4,1,323.548
1,hard,74,5,1,444.997
1,hard,74,6,1,458.635
1,hard,74,7,1,474.686
1,hard,74,8,1,335.658
1,hard,74,9,0,609.852
1,hard,74,10,0,979.618
1,hard,75,1,1,460.52
1,hard,75,2,1,393.977
1,hard,75,3,1,525.609
1,hard,75,4,1,270.49
1,hard,75,5,1,450.619
1,hard,75,6,1,430.123
1,hard,75,7,0,552.133
1,hard,75,8,1,371.2
1,hard,75,9,0,584.328
1,hard,75,10,1,856.327
1,hard,76,1,1,522.583
1,hard,76,2,0,451.431
1,hard,76,3,1,486.652
1,hard,76,4,1,274.485
1,hard,76,5,1,446.936
1,hard,76,6,0,524.169
1,hard,76,7,0,584.586
1,hard,76,8,1,379.776
1,hard,76,9,1,541.245
1,hard,76,10,0,1051.267
1,hard,77,1,1,500.773
1,hard,77,2,1,437.784
1,hard,77,3,1,493.633
1,hard,77,4,0,368.112
1,hard,77,5,1,396.946
1,hard,77,6,1,436.447
1,hard,77,7,0,542.915
1,hard,77,8,1,361.426
1,hard,77,9,1,524.937
1,hard,77,10,0,1026.844
1,hard,78,1,1,523.275
1,hard,78,2,0,522.461
1,hard,78,3,1,535.013
1,hard,78,4,1,291.276
1,hard,78,5,1,383.488
1,hard,78,6,0,561.392
1,hard,78,7,0,506.142
1,hard,78,8,1,401.718
1,hard,78,9,1,497.449
1,hard,78,10,0,877.658
1,hard,79,1,1,501.345
1,hard,79,2,0,481.183
1,hard,79,3,1,506.468
1,hard,79,4,1,308.083
1,hard,79,5,1,425.593
1,hard,79,6,1,495.046
1,hard,79,7,0,561.39
1,hard,79,8,1,365.489
1,hard,79,9,0,620.145
1,hard,79,10,0,1043.385
1,hard,80,1,0,619.293
1,hard,80,2,0,515.31
1,hard,80,3,1,499.251
1,hard,80,4,1,273.517
1,hard,80,5,1,381.78
1,hard,80,6,1,442.051
1,hard,80,7,0,547.607
1,hard,80,8,1,366.896
1,hard,80,9,1,478.835
1,hard,80,10,1,725.115
1,hard,81,1,1,539.525
1,hard,81,2,0,457.99
1,hard,81,3,1,484.123
1,hard,81,4,1,279.126
1,hard,81,5,0,533.6
1,hard,81,6,0,544.274
1,hard,81,7,0,535.295
1,hard,81,8,0,450.201
1,hard,81,9,0,596.926
1,hard,81,10,0,937.489
1,hard,82,1,0,627.85
1,hard,82,2,1,398.904
1,hard,82,3,1,552.28
1,hard,82,4,0,328.593
1,hard,82,5,1,421.776
1,hard,82,6,0,554.976
1,hard,82,7,1,437.392
1,hard,82,8,1,359.27
1,hard,82,9,1,535.248
1,hard,82,10,0,981.489
1,hard,83,1,1,543.596
1,hard,83,2,0,526.77
1,hard,83,3,1,541.2
1,hard,83,4,1,277.803
1,hard,83,5,1,408.246
1,hard,83,6,1,472.237
1,hard,83,7,0,566.25
1,hard,83,8,1,311.745
1,hard,83,9,0,589.108
1,hard,83,10,1,773.084
1,hard,84,1,1,530.501
1,hard,84,2,0,475.639
1,hard,84,3,1,534.857
1,hard,84,4,1,298.383
1,hard,84,5,1,406.417
1,hard,84,6,0,540.552
1,hard,84,7,0,577.209
1,hard,84,8,0,479.847
1,hard,84,9,0,587.722
1,hard,84,10,0,939.73
1,hard,85,1,1,494.002
1,hard,85,2,0,458.121
1,hard,85,3,1,528.368
1,hard,85,4,1,275.248
1,hard,85,5,1,432.359
1,hard,85,6,0,531.856
1,hard,85,7,1,432.298
1,hard,85,8,1,350.905
1,hard,85,9,0,646.432
1,hard,85,10,0,1026.243
1,hard,86,1,1,551.852
1,hard,86,2,0,458.574
1,hard,86,3,1,496.067
1,hard,86,4,0,350.884
1,hard,86,5,1,410.119
1,hard,86,6,1,464.73
1,hard,86,7,0,554.454
1,hard,86,8,1,368.103
1,hard,86,9,0,620.559
1,hard,86,10,0,944.496
1,hard,87,1,0,645.068
1,hard,87,2,0,531.733
1,hard,87,3,1,529.479
1,hard,87,4,1,291.37
1,hard,87,5,0,500.183
1,hard,87,6,1,450.861
1,hard,87,7,0,603.516
1,hard,87,8,1,359.498
1,hard,87,9,0,642.63
1,hard,87,10,0,964.974
1,hard,88,1,0,614.131
1,hard,88,2,0,495.67
1,hard,88,3,1,491.126
1,hard,88,4,1,264.077
1,hard,88,5,1,412.619
1,hard,88,6,0,554.411
1,hard,88,7,1,440.824
1,hard,88,8,1,365.402
1,hard,88,9,0,591.855
1,hard,88,10,0,1037.742
1,hard,89,1,1,460.211
1,hard,89,2,0,453.374
1,hard,89,3,0,604.737
1,hard,89,4,1,270.485
1,hard,89,5,1,426.523
1,hard,89,6,0,576.889
1,hard,89,7,0,539.595
1,hard,89,8,1,352.554
1,hard,89,9,0,560.918
1,hard,89,10,0,906.98
1,hard,90,1,1,492.567
1,hard,90,2,0,473.976
1,hard,90,3,1,530.842
1,hard,90,4,1,278.494
1,hard,90,5,1,414.199
1,hard,90,6,0,561.899
1,hard,90,7,0,557.018
1,hard,90,8,1,369.273
1,hard,90,9,0,573.568
1,hard,90,10,0,875.65
1,hard,91,1,0,629.894
1,hard,91,2,0,527.411
1,hard,91,3,1,473.17
1,hard,91,4,1,268.351
1,hard,91,5,0,540.214
1,hard,91,6,1,460.324
1,hard,91,7,0,578.641
1,hard,91,8,1,397.701
1,hard,91,9,0,607.424
1,hard,91,10,1,880.019
1,hard,92,1,1,504.94
1,hard,92,2,0,530.171
1,hard,92,3,1,510.694
1,hard,92,4,1,304.98
1,hard,92,5,1,398.617
1,hard,92,6,1,481.563
1,hard,92,7,0,588.309
1,hard,92,8,1,368.626
1,hard,92,9,0,607.216
1,hard,92,10,1,810.028
1,hard,93,1,1,432
1,hard,93,2,0,480.394
1,hard,93,3,1,546.772
1,hard,93,4,0,369.498
1,hard,93,5,0,519.59
1,hard,93,6,1,456.294
1,hard,93,7,0,588.245
1,hard,93,8,1,413.454
1,hard,93,9,1,502.646
1,hard,93,10,0,970.35
1,hard,94,1,1,497.382
1,hard,94,2,0,512.644
1,hard,94,3,1,498.143
1,hard,94,4,1,264.1
1,hard,94,5,1,456.16
1,hard,94,6,0,574.535
1,hard,94,7,0,586.893
1,hard,94,8,1,386.895
1,hard,94,9,1,546.454
1,hard,94,10,0,986.683
1,hard,95,1,0,599.222
1,hard,95,2,0,497.776
1,hard,95,3,1,532.348
1,hard,95,4,1,285.913
1,hard,95,5,1,447.891
1,hard,95,6,0,576.684
1,hard,95,7,0,613.184
1,hard,95,8,0,486.221
1,hard,95,9,0,607.171
1,hard,95,10,0,939.362
1,hard,96,1,1,558.981
1,hard,96,2,0,504.625
1,hard,96,3,1,472.007
1,hard,96,4,1,266.411
1,hard,96,5,0,514.425
1,hard,96,6,1,436.285
1,hard,96,7,0,523.842
1,hard,96,8,1,386.892
1,hard,96,9,0,659.846
1,hard,96,10,1,783.606
1,hard,97,1,1,517.103
1,hard,97,2,0,473.741
1,hard,97,3,1,529.57
1,hard,97,4,1,239.724
1,hard,97,5,1,385.872
1,hard,97,6,0,559.158
1,hard,97,7,0,552.833
1,hard,97,8,1,395.204
1,hard,97,9,1,507.366
1,hard,97,10,0,936.48
1,hard,98,1,1,505.256
1,hard,98,2,0,501.456
1,hard,98,3,1,522.585
1,hard,98,4,1,280.291
1,hard,98,5,1,438.568
1,hard,98,6,0,556.348
1,hard,98,7,0,586.804
1,hard,98,8,1,332.449
1,hard,98,9,0,591.617
1,hard,98,10,0,989.149
1,hard,99,1,1,474.235
1,hard,99,2,0,490.009
1,hard,99,3,1,521.35
1,hard,99,4,1,288.747
1,hard,99,5,1,440.441
1,hard,99,6,0,506.793
1,hard,99,7,1,465.513
1,hard,99,8,1,373.695
1,hard,99,9,0,568.523
1,hard,99,10,0,894.84
1,hard,100,1,1,537.76
1,hard,100,2,1,432.373
1,hard,100,3,1,508.477
1,hard,100,4,1,271.498
1,hard,100,5,1,464.753
1,hard,100,6,1,469.668
1,hard,100,7,1,429.568
1,hard,100,8,1,374.308
1,hard,100,9,1,480.864
1,hard,100,10,0,954.411
1,hard,101,1,1,498.178
1,hard,101,2,0,505.445
1,hard,101,3,1,514.451
1,hard,101,4,1,290.642
1,hard,101,5,1,428.986
1,hard,101,6,1,455.332
1,hard,101,7,0,536.124
1,hard,101,8,1,357.447
1,hard,101,9,0,583.911
1,hard,101,10,0,970.583
1,hard,102,1,1,488.617
1,hard,102,2,0,480.196
1,hard,102,3,1,536.85
1,hard,102,4,1,291.031
1,hard,102,5,1,399.348
1,hard,102,6,1,450.4
1,hard,102,7,0,551.556
1,hard,102,8,0,453.711
1,hard,102,9,1,514.034
1,hard,102,10,1,816.817
1,hard,103,1,1,447.98
1,hard,103,2,0,496.345
1,hard,103,3,0,612.31
1,hard,103,4,1,292.618
1,hard,103,5,1,400.156
1,hard,103,6,0,533.997
1,hard,103,7,0,536.85
1,hard,103,8,1,374.397
1,hard,103,9,1,489.408
1,hard,103,10,0,955.498
1,hard,104,1,1,487.997
1,hard,104,2,0,468.744
1,hard,104,3,1,543.087
1,hard,104,4,0,353.519
1,hard,104,5,0,525.694
1,hard,104,6,0,550.879
1,hard,104,7,1,423.864
1,hard,104,8,1,362.723
1,hard,104,9,1,496.026
1,hard,104,10,1,764.539
1,hard,105,1,1,519.283
1,hard,105,2,1,409.333
1,hard,105,3,1,498.3
1,hard,105,4,1,284.055
1,hard,105,5,1,435.001
1,hard,105,6,1,475.371
1,hard,105,7,1,471.175
1,hard,105,8,1,403.857
1,hard,105,9,0,532.667
1,hard,105,10,0,968.177
1,hard,106,1,1,493.812
1,hard,106,2,1,424.139
1,hard,106,3,1,504.838
1,hard,106,4,1,282.219
1,hard,106,5,1,399.221
1,hard,106,6,1,425.453
1,hard,106,7,0,540.646
1,hard,106,8,1,355.606
1,hard,106,9,0,582.124
1,hard,106,10,0,964.546
1,hard,107,1,0,687.14
1,hard,107,2,0,471.394
1,hard,107,3,1,544.215
1,hard,107,4,1,284.278
1,hard,107,5,1,417.735
1,hard,107,6,1,473.291
1,hard,107,7,0,525.629
1,hard,107,8,1,378.045
1,hard,107,9,1,461.47
1,hard,107,10,0,991.145
1,hard,108,1,1,551.114
1,hard,108,2,0,500.804
1,hard,108,3,1,538.454
1,hard,108,4,0,343.635
1,hard,108,5,1,400.984
1,hard,108,6,1,488.538
1,hard,108,7,0,526.575
1,hard,108,8,1,365.507
1,hard,108,9,0,653.384
1,hard,108,10,0,1009.969
1,hard,109,1,1,507.608
1,hard,109,2,0,487.583
1,hard,109,3,1,493.872
1,hard,109,4,1,295.476
1,hard,109,5,0,578.732
1,hard,109,6,1,461.361
1,hard,109,7,1,433.005
1,hard,109,8,1,347.305
1,hard,109,9,1,509.91
1,hard,109,10,0,974.918
1,hard,110,1,1,474.285
1,hard,110,2,0,453.075
1,hard,110,3,1,514.645
1,hard,110,4,0,336.052
1,hard,110,5,1,406.71
1,hard,110,6,1,484.536
1,hard,110,7,0,562.5
1,hard,110,8,1,384.994
1,hard,110,9,0,622.342
1,hard,110,10,1,792.27
1,hard,111,1,1,481.244
1,hard,111,2,0,507.897
1,hard,111,3,1,470.328
1,hard,111,4,1,307.871
1,hard,111,5,1,430.737
1,hard,111,6,1,495.458
1,hard,111,7,1,445.579
1,hard,111,8,1,344.992
1,hard,111,9,0,588.021
1,hard,111,10,0,896.895
1,hard,112,1,1,480.078
1,hard,112,2,0,501.805
1,hard,112,3,1,487.501
1,hard,112,4,1,278.799
1,hard,112,5,0,525.868
1,hard,112,6,0,536.773
1,hard,112,7,0,581.885
1,hard,112,8,1,372.099
1,hard,112,9,0,618.17
1,hard,112,10,0,1007.094
1,hard,113,1,1,501.181
1,hard,113,2,0,456.136
1,hard,113,3,1,503.567
1,hard,113,4,0,383.517
1,hard,113,5,1,430.372
1,hard,113,6,0,599.52
1,hard,113,7,1,490.676
1,hard,113,8,1,364.651
1,hard,113,9,0,614.167
1,hard,113,10,0,961.107
1,hard,114,1,1,471.556
1,hard,114,2,0,469.356
1,hard,114,3,0,610.134
1,hard,114,4,1,280.383
1,hard,114,5,1,415.486
1,hard,114,6,0,549.375
1,hard,114,7,1,478.479
1,hard,114,8,1,368.723
1,hard,114,9,1,476.04
1,hard,114,10,1,840.651
1,hard,115,1,1,470.669
1,hard,115,2,0,506.239
1,hard,115,3,1,501.495
1,hard,115,4,1,298.804
1,hard,115,5,1,427.271
1,hard,115,6,0,539.588
1,hard,115,7,0,556.89
1,hard,115,8,1,355.332
1,hard,115,9,1,516.238
1,hard,115,10,0,923.92
1,hard,116,1,1,500.915
1,hard,116,2,0,488.076
1,hard,116,3,1,507.437
1,hard,116,4,1,284.487
1,hard,116,5,1,437.971
1,hard,116,6,0,535.802
1,hard,116,7,0,565.107
1,hard,116,8,1,372.204
1,hard,116,9,1,527.346
1,hard,116,10,0,879.889
1,hard,117,1,1,505.603
1,hard,117,2,0,508.657
1,hard,117,3,1,547.573
1,hard,117,4,1,292.395
1,hard,117,5,1,401.668
1,hard,117,6,1,512.265
1,hard,117,7,0,560.39
1,hard,117,8,1,390.076
1,hard,117,9,1,482.347
1,hard,117,10,1,819.192
1,hard,118,1,1,525.982
1,hard,118,2,0,498.519
1,hard,118,3,1,495.556
1,hard,118,4,1,285.311
1,hard,118,5,1,436.094
1,hard,118,6,0,555.414
1,hard,118,7,0,613.729
1,hard,118,8,1,387.348
1,hard,118,9,0,615.644
1,hard,118,10,1,771.559
1,hard,119,1,1,527.646
1,hard,119,2,0,467.216
1,hard,119,3,1,486.368
1,hard,119,4,1,265.6
1,hard,119,5,0,516.361
1,hard,119,6,1,442.133
1,hard,119,7,0,551.704
1,hard,119,8,1,366.801
1,hard,119,9,0,631.427
1,hard,119,10,0,985.49
1,hard,120,1,0,629.264
1,hard,120,2,0,497.653
1,hard,120,3,1,521.669
1,hard,120,4,1,259.743
1,hard,120,5,1,396.941
1,hard,120,6,1,441.757
1,hard,120,7,0,566.103
1,hard,120,8,1,354.609
1,hard,120,9,0,575.581
1,hard,120,10,0,1007.114
1,hard,121,1,1,535.167
1,hard,121,2,0,444.827
1,hard,121,3,1,499.559
1,hard,121,4,1,299.237
1,hard,121,5,1,413.519
1,hard,121,6,1,459.773
1,hard,121,7,0,584.335
1,hard,121,8,1,366.916
1,hard,121,9,0,623.075
1,hard,121,10,0,914.49
1,hard,122,1,1,459.306
1,hard,122,2,0,509.749
1,hard,122,3,1,528.126
1,hard,122,4,1,275.33
1,hard,122,5,0,505.122
1,hard,122,6,1,447.003
1,hard,122,7,1,437.342
1,hard,122,8,1,376.116
1,hard,122,9,0,597.195
1,hard,122,10,0,987.676
1,hard,123,1,1,503.774
1,hard,123,2,1,406.821
1,hard,123,3,1,498.006
1,hard,123,4,1,282.181
1,hard,123,5,1,475.761
1,hard,123,6,0,569.673
1,hard,123,7,0,538.083
1,hard,123,8,1,341.93
1,hard,123,9,0,584.41
1,hard,123,10,0,998.118
1,hard,124,1,1,476.702
1,hard,124,2,1,440.046
1,hard,124,3,1,505.779
1,hard,124,4,1,277.474
1,hard,124,5,1,430.817
1,hard,124,6,0,527.921
1,hard,124,7,1,442.609
1,hard,124,8,1,369.479
1,hard,124,9,0,653.746
1,hard,124,10,0,945.101
1,hard,125,1,1,554.977
1,hard,125,2,0,471.186
1,hard,125,3,1,495.898
1,hard,125,4,0,332.545
1,hard,125,5,1,447.888
1,hard,125,6,1,477.618
1,hard,125,7,0,555.937
1,hard,125,8,1,355.971
1,hard,125,9,0,587.995
1,hard,125,10,0,981.325
1,hard,126,1,1,509.404
1,hard,126,2,0,469.427
1,hard,126,3,1,483.477
1,hard,126,4,1,296.525
1,hard,126,5,0,526.639
1,hard,126,6,0,573.083
1,hard,126,7,0,550.218
1,hard,126,8,1,370.674
1,hard,126,9,1,510.965
1,hard,126,10,1,728.567
1,hard,127,1,1,493.051
1,hard,127,2,0,506.496
1,hard,127,3,1,481.273
1,hard,127,4,0,349.616
1,hard,127,5,0,491.319
1,hard,127,6,1,473.68
1,hard,127,7,1,471.189
1,hard,127,8,1,396.991
1,hard,127,9,0,586.259
1,hard,127,10,0,896.822
1,hard,128,1,0,623.12
1,hard,128,2,0,480.443
1,hard,128,3,1,517.775
1,hard,128,4,0,347.829
1,hard,128,5,1,423.292
1,hard,128,6,1,460.719
1,hard,128,7,0,548.713
1,hard,128,8,1,370.846
1,hard,128,9,0,593.702
1,hard,128,10,0,983.061
1,hard,129,1,1,512.199
1,hard,129,2,0,453.934
1,hard,129,3,1,526.706
1,hard,129,4,0,358.81
1,hard,129,5,1,407.303
1,hard,129,6,1,509.152
1,hard,129,7,1,491.242
1,hard,129,8,1,378.069
1,hard,129,9,1,467.83
1,hard,129,10,0,987.312
1,hard,130,1,1,490.528
1,hard,130,2,1,383.737
1,hard,130,3,1,580.353
1,hard,130,4,1,273.981
1,hard,130,5,0,486.128
1,hard,130,6,1,495.139
1,hard,130,7,0,550.586
1,hard,130,8,1,387.552
1,hard,130,9,0,613.284
1,hard,130,10,0,883.426
1,hard,131,1,1,548.314
1,hard,131,2,1,404.736
1,hard,131,3,1,500.085
1,hard,131,4,1,299.286
1,hard,131,5,0,520.2
1,hard,131,6,1,446.26
1,hard,131,7,0,537.749
1,hard,131,8,1,384.219
1,hard,131,9,0,578.985
1,hard,131,10,0,925.315
1,hard,132,1,0,596.393
1,hard,132,2,0,478.052
1,hard,132,3,1,496.286
1,hard,132,4,1,289.183
1,hard,132,5,1,410.076
1,hard,132,6,1,474.66
1,hard,132,7,1,446.822
1,hard,132,8,1,382.97
1,hard,132,9,0,602.015
1,hard,132,10,0,979.427
1,hard,133,1,0,600.995
1,hard,133,2,0,508.433
1,hard,133,3,1,462.072
1,hard,133,4,0,332.258
1,hard,133,5,0,512.069
1,hard,133,6,1,423.635
1,hard,133,7,1,471.297
1,hard,133,8,1,395.811
1,hard,133,9,1,465.087
1,hard,133,10,0,1002.114
1,hard,134,1,1,467.62
1,hard,134,2,0,433.323
1,hard,134,3,1,520.834
1,hard,134,4,1,297.816
1,hard,134,5,1,406.439
1,hard,134,6,1,462.596
1,hard,134,7,0,596.29
1,hard,134,8,1,391.267
1,hard,134,9,0,645.208
1,hard,134,10,1,803.719
1,hard,135,1,1,475.493
1,hard,135,2,1,448.071
1,hard,135,3,1,533.636
1,hard,135,4,1,287.528
1,hard,135,5,1,466.576
1,hard,135,6,0,482.396
1,hard,135,7,0,567.668
1,hard,135,8,1,334.349
1,hard,135,9,0,550.855
1,hard,135,10,1,794.994
1,hard,136,1,1,498.927
1,hard,136,2,0,452.269
1,hard,136,3,1,474.616
1,hard,136,4,1,308.267
1,hard,136,5,1,455.929
1,hard,136,6,1,485.126
1,hard,136,7,0,613.666
1,hard,136,8,1,365.319
1,hard,136,9,0,654.009
1,hard,136,10,0,981.177
1,hard,137,1,1,479.992
1,hard,137,2,0,489.228
1,hard,137,3,1,513.67
1,hard,137,4,1,296.28
1,hard,137,5,0,506.276
1,hard,137,6,1,432.049
1,hard,137,7,0,571.482
1,hard,137,8,1,357.727
1,hard,137,9,1,479.988
1,hard,137,10,0,971.406
1,hard,138,1,1,521.591
1,hard,138,2,0,443.441
1,hard,138,3,1,495.984
1,hard,138,4,0,335.995
1,hard,138,5,1,452.116
1,hard,138,6,0,579.28
1,hard,138,7,1,450.363
1,hard,138,8,1,369.349
1,hard,138,9,1,536.759
1,hard,138,10,0,942.67
1,hard,139,1,0,623.905
1,hard,139,2,0,483.6
1,hard,139,3,1,536.154
1,hard,139,4,1,258.509
1,hard,139,5,0,498.724
1,hard,139,6,0,557.303
1,hard,139,7,0,586.309
1,hard,139,8,1,362.372
1,hard,139,9,1,521.284
1,hard,139,10,0,943.519
1,hard,140,1,1,498.125
1,hard,140,2,0,471.524
1,hard,140,3,1,492.306
1,hard,140,4,1,281.191
1,hard,140,5,0,553.368
1,hard,140,6,1,446.99
1,hard,140,7,1,513.14
1,hard,140,8,1,350.474
1,hard,140,9,0,621.16
1,hard,140,10,0,1040.268
1,hard,141,1,0,646.936
1,hard,141,2,1,360.937
1,hard,141,3,1,473.895
1,hard,141,4,0,374.357
1,hard,141,5,1,449.555
1,hard,141,6,0,530.527
1,hard,141,7,0,615.933
1,hard,141,8,1,363.527
1,hard,141,9,0,608.963
1,hard,141,10,0,955.151
1,hard,142,1,1,491.539
1,hard,142,2,0,539.98
1,hard,142,3,1,504.929
1,hard,142,4,1,286.104
1,hard,142,5,1,426.165
1,hard,142,6,1,474.219
1,hard,142,7,0,571.351
1,hard,142,8,1,400.581
1,hard,142,9,0,594.661
1,hard,142,10,0,951.732
1,hard,143,1,1,545.145
1,hard,143,2,1,418.342
1,hard,143,3,1,506.226
1,hard,143,4,1,268.502
1,hard,143,5,0,523.809
1,hard,143,6,1,468.167
1,hard,143,7,0,577.4
1,hard,143,8,1,364.956
1,hard,143,9,0,566.742
1,hard,143,10,1,785.641
1,hard,144,1,1,533.144
1,hard,144,2,0,494.204
1,hard,144,3,1,516.157
1,hard,144,4,0,363.48
1,hard,144,5,1,399.235
1,hard,144,6,0,510.85
1,hard,144,7,0,596.71
1,hard,144,8,1,341.514
1,hard,144,9,0,563.253
1,hard,144,10,1,818.609
1,hard,145,1,0,607.717
1,hard,145,2,0,478.877
1,hard,145,3,1,466.195
1,hard,145,4,1,265.153
1,hard,145,5,1,409.961
1,hard,145,6,0,516.632
1,hard,145,7,0,552.669
1,hard,145,8,1,385.942
1,hard,145,9,0,601.576
1,hard,145,10,0,962.651
1,hard,146,1,0,581.81
1,hard,146,2,1,405.534
1,hard,146,3,1,462.698
1,hard,146,4,1,320.096
1,hard,146,5,1,421.978
1,hard,146,6,0,546.484
1,hard,146,7,1,468.5
1,hard,146,8,1,372.256
1,hard,146,9,0,605.775
1,hard,146,10,1,818.954
1,hard,147,1,0,686.29
1,hard,147,2,0,480.168
1,hard,147,3,1,499.469
1,hard,147,4,0,345.239
1,hard,147,5,1,408.382
1,hard,147,6,0,561.443
1,hard,147,7,0,506.739
1,hard,147,8,1,388.596
1,hard,147,9,1,492.934
1,hard,147,10,0,961.669
1,hard,148,1,1,514.916
1,hard,148,2,1,384.455
1,hard,148,3,1,471.962
1,hard,148,4,1,258.165
1,hard,148,5,0,491.171
1,hard,148,6,1,473.469
1,hard,148,7,0,609.854
1,hard,148,8,1,370.725
1,hard,148,9,0,657.93
1,hard,148,10,0,1078.681
1,hard,149,1,1,505.327
1,hard,149,2,0,494.65
1,hard,149,3,1,487.447
1,hard,149,4,1,270.976
1,hard,149,5,0,567.833
1,hard,149,6,1,419.198
1,hard,149,7,0,596.06
1,hard,149,8,1,371.285
1,hard,149,9,1,538.402
1,hard,149,10,0,1004.944
1,hard,150,1,0,589.768
1,hard,150,2,1,396.492
1,hard,150,3,1,469.658
1,hard,150,4,1,283.735
1,hard,150,5,1,475.216
1,hard,150,6,0,521.54
1,hard,150,7,1,413.807
1,hard,150,8,1,335.591
1,hard,150,9,0,615.521
1,hard,150,10,0,929.19
1,hard,151,1,0,623.825
1,hard,151,2,0,462.375
1,hard,151,3,1,522.254
1,hard,151,4,1,308.107
1,hard,151,5,1,393.809
1,hard,151,6,1,435.545
1,hard,151,7,1,426.805
1,hard,151,8,1,391.474
1,hard,151,9,1,478.024
1,hard,151,10,1,726.86
1,hard,152,1,1,488.763
1,hard,152,2,0,457.611
1,hard,152,3,1,529.35
1,hard,152,4,1,277.555
1,hard,152,5,1,445.952
1,hard,152,6,1,481.489
1,hard,152,7,0,611.702
1,hard,152,8,1,378.232
1,hard,152,9,0,693.13
1,hard,152,10,1,747.808
1,hard,153,1,1,528.907
1,hard,153,2,0,549.846
1,hard,153,3,1,481.243
1,hard,153,4,1,279.582
1,hard,153,5,0,519.571
1,hard,153,6,0,579.492
1,hard,153,7,0,606.422
1,hard,153,8,1,352.784
1,hard,153,9,0,671.224
1,hard,153,10,0,1037.498
1,hard,154,1,1,535.201
1,hard,154,2,0,505.579
1,hard,154,3,0,605.269
1,hard,154,4,0,333.598
1,hard,154,5,1,453.744
1,hard,154,6,1,433.704
1,hard,154,7,0,525.227
1,hard,154,8,1,365.938
1,hard,154,9,0,627.055
1,hard,154,10,1,751.801
1,hard,155,1,1,539.665
1,hard,155,2,0,504.052
1,hard,155,3,1,562.17
1,hard,155,4,0,319.8
1,hard,155,5,0,543.305
1,hard,155,6,0,557.984
1,hard,155,7,0,561.187
1,hard,155,8,1,375.37
1,hard,155,9,0,605.037
1,hard,155,10,0,898.43
1,hard,156,1,1,478.395
1,hard,156,2,1,417.085
1,hard,156,3,1,493.686
1,hard,156,4,1,296.124
1,hard,156,5,0,501.899
1,hard,156,6,1,498.905
1,hard,156,7,0,615.927
1,hard,156,8,1,385.985
1,hard,156,9,0,600.289
1,hard,156,10,0,1043.813
1,hard,157,1,1,465.607
1,hard,157,2,0,511.333
1,hard,157,3,1,484.045
1,hard,157,4,1,327.929
1,hard,157,5,1,451.491
1,hard,157,6,0,559.372
1,hard,157,7,0,568.637
1,hard,157,8,1,374.344
1,hard,157,9,0,584.226
1,hard,157,10,0,936.918
1,hard,158,1,0,607.272
1,hard,158,2,1,381.023
1,hard,158,3,1,462.126
1,hard,158,4,0,348.823
1,hard,158,5,1,397.701
1,hard,158,6,1,476.685
1,hard,158,7,0,562.459
1,hard,158,8,1,362.846
1,hard,158,9,0,610.131
1,hard,158,10,0,900.825
1,hard,159,1,1,506.693
1,hard,159,2,0,491.259
1,hard,159,3,1,477.853
1,hard,159,4,1,289.254
1,hard,159,5,1,466.719
1,hard,159,6,1,464
1,hard,159,7,1,472.028
1,hard,159,8,1,361.571
1,hard,159,9,0,614.871
1,hard,159,10,0,963.83
1,hard,160,1,1,562.394
1,hard,160,2,0,484.65
1,hard,160,3,1,505.614
1,hard,160,4,1,317.438
1,hard,160,5,1,400.797
1,hard,160,6,0,572.893
1,hard,160,7,0,599.489
1,hard,160,8,1,385.016
1,hard,160,9,0,544.597
1,hard,160,10,1,817.329
1,hard,161,1,0,680.556
1,hard,161,2,0,491.81
1,hard,161,3,1,545.939
1,hard,161,4,1,289.433
1,hard,161,5,0,495.892
1,hard,161,6,0,544.709
1,hard,161,7,0,556.99
1,hard,161,8,1,352.602
1,hard,161,9,1,502.885
1,hard,161,10,0,1033.085
1,hard,162,1,1,545.1
1,hard,162,2,0,420.676
1,hard,162,3,1,499.864
1,hard,162,4,1,277.928
1,hard,162,5,0,512.415
1,hard,162,6,1,474.358
1,hard,162,7,0,568.478
1,hard,162,8,1,348.68
1,hard,162,9,0,637.177
1,hard,162,10,1,815.704
1,hard,163,1,0,616.472
1,hard,163,2,0,510.242
1,hard,163,3,1,547.505
1,hard,163,4,1,266.308
1,hard,163,5,0,534.323
1,hard,163,6,0,585.544
1,hard,163,7,0,531.593
1,hard,163,8,1,378.201
1,hard,163,9,0,648.865
1,hard,163,10,0,960.495
1,hard,164,1,1,520.229
1,hard,164,2,0,499.377
1,hard,164,3,1,493.924
1,hard,164,4,1,269.577
1,hard,164,5,1,433.593
1,hard,164,6,1,480.263
1,hard,164,7,1,457.303
1,hard,164,8,1,363.631
1,hard,164,9,0,667.166
1,hard,164,10,1,772.305
1,hard,165,1,1,520.792
1,hard,165,2,1,444.06
1,hard,165,3,1,490.416
1,hard,165,4,1,325.96
1,hard,165,5,1,461.46
1,hard,165,6,1,488.887
1,hard,165,7,0,604.867
1,hard,165,8,1,362.435
1,hard,165,9,1,502.229
1,hard,165,10,0,941.38
1,hard,166,1,1,473.328
1,hard,166,2,1,417.758
1,hard,166,3,1,484.124
1,hard,166,4,1,299.286
1,hard,166,5,1,439.357
1,hard,166,6,1,438.162
1,hard,166,7,0,594.348
1,hard,166,8,1,352.722
1,hard,166,9,1,481.861
1,hard,166,10,0,899.447
1,hard,167,1,1,477.818
1,hard,167,2,1,379.287
1,hard,167,3,1,487.993
1,hard,167,4,1,288.351
1,hard,167,5,1,432.769
1,hard,167,6,1,505.359
1,hard,167,7,1,465.595
1,hard,167,8,1,358.5
1,hard,167,9,0,603.605
1,hard,167,10,0,855.96
1,hard,168,1,1,540.571
1,hard,168,2,1,379.292
1,hard,168,3,1,530.641
1,hard,168,4,1,274.838
1,hard,168,5,1,450.863
1,hard,168,6,0,525.047
1,hard,168,7,0,578.065
1,hard,168,8,1,338.119
1,hard,168,9,0,629.386
1,hard,168,10,0,979.658
1,hard,169,1,0,585.076
1,hard,169,2,0,513.647
1,hard,169,3,1,494.606
1,hard,169,4,1,303.233
1,hard,169,5,1,421.439
1,hard,169,6,1,453.186
1,hard,169,7,0,573.29
1,hard,169,8,1,374.911
1,hard,169,9,0,578.034
1,hard,169,10,1,718.226
1,hard,170,1,1,497.321
1,hard,170,2,0,452.997
1,hard,170,3,0,652.433
1,hard,170,4,1,289.825
1,hard,170,5,1,418.652
1,hard,170,6,1,460.94
1,hard,170,7,0,566.624
1,hard,170,8,1,408.514
1,hard,170,9,0,600.625
1,hard,170,10,0,1017.919
1,hard,171,1,1,483.458
1,hard,171,2,0,467.688
1,hard,171,3,1,511.458
1,hard,171,4,1,275.899
1,hard,171,5,1,425.897
1,hard,171,6,1,442.626
1,hard,171,7,1,441.747
1,hard,171,8,1,355.975
1,hard,171,9,0,586.466
1,hard,171,10,0,1016.027
1,hard,172,1,1,501.263
1,hard,172,2,0,469.378
1,hard,172,3,1,528.281
1,hard,172,4,1,260.76
1,hard,172,5,1,385.628
1,hard,172,6,1,479.8
1,hard,172,7,0,595.348
1,hard,172,8,1,354.811
1,hard,172,9,0,615.672
1,hard,172,10,0,934.761
1,hard,173,1,1,510.491
1,hard,173,2,0,480.299
1,hard,173,3,1,457.687
1,hard,173,4,1,300.043
1,hard,173,5,1,478.22
1,hard,173,6,1,458.811
1,hard,173,7,0,560.819
1,hard,173,8,1,343.839
1,hard,173,9,1,526.691
1,hard,173,10,0,1093.082
1,hard,174,1,1,552.088
1,hard,174,2,0,488.015
1,hard,174,3,1,504.291
1,hard,174,4,1,273.667
1,hard,174,5,0,525.383
1,hard,174,6,1,470.066
1,hard,174,7,0,610.415
1,hard,174,8,1,377.353
1,hard,174,9,1,516.338
1,hard,174,10,0,1001.657
1,hard,175,1,1,501.857
1,hard,175,2,0,505.113
1,hard,175,3,1,516.718
1,hard,175,4,1,291.82
1,hard,175,5,1,471.071
1,hard,175,6,1,482.72
1,hard,175,7,0,572.836
1,hard,175,8,1,357.904
1,hard,175,9,1,503.314
1,hard,175,10,1,788.198
1,hard,176,1,1,465.305
1,hard,176,2,0,461.174
1,hard,176,3,1,517.402
1,hard,176,4,1,288.784
1,hard,176,5,1,447.335
1,hard,176,6,1,458.901
1,hard,176,7,0,572.75
1,hard,176,8,1,356.865
1,hard,176,9,1,496.791
1,hard,176,10,0,857.455
1,hard,177,1,1,511.514
1,hard,177,2,0,503.012
1,hard,177,3,1,483.142
1,hard,177,4,1,289.887
1,hard,177,5,0,526.086
1,hard,177,6,0,555.169
1,hard,177,7,0,583.01
1,hard,177,8,1,348.119
1,hard,177,9,1,481.34
1,hard,177,10,0,943.011
1,hard,178,1,1,495.715
1,hard,178,2,0,492.37
1,hard,178,3,1,499.329
1,hard,178,4,0,365.459
1,hard,178,5,1,437.369
1,hard,178,6,0,526.82
1,hard,178,7,0,543.299
1,hard,178,8,1,382.941
1,hard,178,9,0,596.095
1,hard,178,10,0,981.335
1,hard,179,1,1,499.526
1,hard,179,2,0,499.184
1,hard,179,3,1,551.25
1,hard,179,4,1,309.305
1,hard,179,5,1,440.957
1,hard,179,6,1,438.913
1,hard,179,7,1,460.239
1,hard,179,8,1,335.705
1,hard,179,9,1,545.707
1,hard,179,10,0,1006.194
1,hard,180,1,1,538.287
1,hard,180,2,0,533.128
1,hard,180,3,1,501.512
1,hard,180,4,0,360.21
1,hard,180,5,1,401.131
1,hard,180,6,1,474.308
1,hard,180,7,0,569.365
1,hard,180,8,1,360.907
1,hard,180,9,0,598.464
1,hard,180,10,1,788.95
1,hard,181,1,0,641.392
1,hard,181,2,0,475.356
1,hard,181,3,1,503.241
1,hard,181,4,1,280.558
1,hard,181,5,1,418.231
1,hard,181,6,1,484.538
1,hard,181,7,0,574.887
1,hard,181,8,1,341.44
1,hard,181,9,0,605.394
1,hard,181,10,0,940.122
1,hard,182,1,1,485.302
1,hard,182,2,0,512.085
1,hard,182,3,0,625.522
1,hard,182,4,1,274.28
1,hard,182,5,1,467.214
1,hard,182,6,1,450.222
1,hard,182,7,0,562.171
1,hard,182,8,1,370.022
1,hard,182,9,0,605.104
1,hard,182,10,1,864.26
1,hard,183,1,1,489.679
1,hard,183,2,0,499.407
1,hard,183,3,1,515.233
1,hard,183,4,1,281.915
1,hard,183,5,1,412.377
1,hard,183,6,1,417.213
1,hard,183,7,0,555.714
1,hard,183,8,1,391.14
1,hard,183,9,0,578.091
1,hard,183,10,1,788.454
1,hard,184,1,0,578.979
1,hard,184,2,0,455.209
1,hard,184,3,1,463.732
1,hard,184,4,1,290.048
1,hard,184,5,1,428.489
1,hard,184,6,1,488.691
1,hard,184,7,0,546.115
1,hard,184,8,1,334.195
1,hard,184,9,0,628.125
1,hard,184,10,0,973.372
1,hard,185,1,1,512.666
1,hard,185,2,0,496.857
1,hard,185,3,1,505.029
1,hard,185,4,1,273.956
1,hard,185,5,1,448.255
1,hard,185,6,1,431.434
1,hard,185,7,1,508.106
1,hard,185,8,0,456.764
1,hard,185,9,0,618.092
1,hard,185,10,0,1015.16
1,hard,186,1,0,618.11
1,hard,186,2,1,409.825
1,hard,186,3,1,541.147
1,hard,186,4,1,292.624
1,hard,186,5,0,474.603
1,hard,186,6,1,466.658
1,hard,186,7,0,529.296
1,hard,186,8,1,332.66
1,hard,186,9,1,557.371
1,hard,186,10,0,899.025
1,hard,187,1,1,508.367
1,hard,187,2,1,389.535
1,hard,187,3,1,489.291
1,hard,187,4,1,272.413
1,hard,187,5,1,393.819
1,hard,187,6,0,539.045
1,hard,187,7,0,522.946
1,hard,187,8,1,392.538
1,hard,187,9,0,630.302
1,hard,187,10,0,934.371
1,hard,188,1,0,640.828
1,hard,188,2,0,521.763
1,hard,188,3,1,523.996
1,hard,188,4,1,281.199
1,hard,188,5,1,402.024
1,hard,188,6,1,443.476
1,hard,188,7,0,575.072
1,hard,188,8,1,362.681
1,hard,188,9,0,610.716
1,hard,188,10,0,986.871
1,hard,189,1,1,488.351
1,hard,189,2,1,406.036
1,hard,189,3,1,477.651
1,hard,189,4,1,280.913
1,hard,189,5,0,501.843
1,hard,189,6,0,545.728
1,hard,189,7,0,550.975
1,hard,189,8,1,351.086
1,hard,189,9,0,621.658
1,hard,189,10,0,908.101
1,hard,190,1,1,513.016
1,hard,190,2,1,394.361
1,hard,190,3,1,518.629
1,hard,190,4,1,295.091
1,hard,190,5,1,427.842
1,hard,190,6,1,457.877
1,hard,190,7,0,571.58
1,hard,190,8,1,361.73
1,hard,190,9,0,546.808
1,hard,190,10,0,1002.646
1,hard,191,1,1,481.888
1,hard,191,2,1,393.005
1,hard,191,3,1,520.594
1,hard,191,4,1,307.917
1,hard,191,5,0,509.493
1,hard,191,6,1,444.357
1,hard,191,7,0,592.037
1,hard,191,8,1,364.429
1,hard,191,9,0,635.584
1,hard,191,10,0,1008.783
1,hard,192,1,0,566.776
1,hard,192,2,0,490.297
1,hard,192,3,1,490.654
1,hard,192,4,1,294.493
1,hard,192,5,0,498.641
1,hard,192,6,0,595.197
1,hard,192,7,1,515.037
1,hard,192,8,1,346.209
1,hard,192,9,1,527.078
1,hard,192,10,1,779.864
1,hard,193,1,1,505.103
1,hard,193,2,0,505.526
1,hard,193,3,1,506.423
1,hard,193,4,0,342.979
1,hard,193,5,1,369.502
1,hard,193,6,1,445.128
1,hard,193,7,0,552.127
1,hard,193,8,1,370.147
1,hard,193,9,0,570.615
1,hard,193,10,0,1025.981
1,hard,194,1,1,480.796
1,hard,194,2,0,490.198
1,hard,194,3,1,528.884
1,hard,194,4,1,291.177
1,hard,194,5,0,534.144
1,hard,194,6,0,507.767
1,hard,194,7,0,541.606
1,hard,194,8,0,418.713
1,hard,194,9,1,525.099
1,hard,194,10,0,925.618
1,hard,195,1,1,511.928
1,hard,195,2,0,518.473
1,hard,195,3,1,522.3
1,hard,195,4,0,392.187
1,hard,195,5,1,408.46
1,hard,195,6,1,449.443
1,hard,195,7,1,479.859
1,hard,195,8,1,387.057
1,hard,195,9,0,610.028
1,hard,195,10,1,726.854
1,hard,196,1,1,504.529
1,hard,196,2,0,542.125
1,hard,196,3,1,484.652
1,hard,196,4,0,366.895
1,hard,196,5,1,423.536
1,hard,196,6,1,456.797
1,hard,196,7,0,669.959
1,hard,196,8,1,373.956
1,hard,196,9,0,583.149
1,hard,196,10,0,924.058
1,hard,197,1,1,481.081
1,hard,197,2,1,403.714
1,hard,197,3,1,570.922
1,hard,197,4,1,302.735
1,hard,197,5,1,420.634
1,hard,197,6,0,555.218
1,hard,197,7,0,610.163
1,hard,197,8,1,389.826
1,hard,197,9,1,503.159
1,hard,197,10,0,974.229
1,hard,198,1,0,629.383
1,hard,198,2,0,460.369
1,hard,198,3,0,612.995
1,hard,198,4,1,308.141
1,hard,198,5,1,437.174
1,hard,198,6,1,460.369
1,hard,198,7,0,514.464
1,hard,198,8,1,369.96
1,hard,198,9,0,604.455
1,hard,198,10,0,953.629
1,hard,199,1,1,498.442
1,hard,199,2,0,510.665
1,hard,199,3,1,490.493
1,hard,199,4,1,260.261
1,hard,199,5,1,430.483
1,hard,199,6,1,482.385
1,hard,199,7,0,563.013
1,hard,199,8,1,377.41
1,hard,199,9,1,480.767
1,hard,199,10,0,990.477
1,hard,200,1,1,498.769
1,hard,200,2,0,494.015
1,hard,200,3,1,537.524
1,hard,200,4,1,285.842
1,hard,200,5,1,390.955
1,hard,200,6,1,463.588
1,hard,200,7,0,571.311
1,hard,200,8,1,380.677
1,hard,200,9,0,613.261
1,hard,200,10,0,949.558
1,hard,201,1,1,467.208
1,hard,201,2,0,479.026
1,hard,201,3,1,532.429
1,hard,201,4,1,286.272
1,hard,201,5,1,438.129
1,hard,201,6,0,572.68
1,hard,201,7,1,446.806
1,hard,201,8,1,361.452
1,hard,201,9,0,639.185
1,hard,201,10,0,919.398
1,hard,202,1,1,498.528
1,hard,202,2,1,399.319
1,hard,202,3,1,504.36
1,hard,202,4,1,292.858
1,hard,202,5,0,554.121
1,hard,202,6,1,399.333
1,hard,202,7,0,560.705
1,hard,202,8,1,381.954
1,hard,202,9,0,569.946
1,hard,202,10,0,993.26
1,hard,203,1,1,475.343
1,hard,203,2,1,418.616
1,hard,203,3,1,499.857
1,hard,203,4,1,283.716
1,hard,203,5,1,429.252
1,hard,203,6,1,453.896
1,hard,203,7,0,580.722
1,hard,203,8,1,375.871
1,hard,203,9,1,523.515
1,hard,203,10,1,822.248
1,hard,204,1,1,535.714
1,hard,204,2,0,466.068
1,hard,204,3,1,483.514
1,hard,204,4,1,287.642
1,hard,204,5,1,403.017
1,hard,204,6,0,520.566
1,hard,204,7,0,527.801
1,hard,204,8,1,384.842
1,hard,204,9,1,486.738
1,hard,204,10,1,824.227
1,hard,205,1,1,501.523
