size,condition,trial,subject,correct,RT
1,easy,1,1,1,612.445
1,easy,1,2,0,241.01
1,easy,1,3,1,283.58
1,easy,1,4,0,233.697
1,easy,1,5,1,330.521
1,easy,1,6,0,456.04
1,easy,1,7,1,589.337
1,easy,1,8,0,334.654
1,easy,1,9,1,697.988
1,easy,1,10,1,318.708
1,easy,2,1,1,435.567
1,easy,2,2,0,248.164
1,easy,2,3,1,272.887
1,easy,2,4,0,288.304
1,easy,2,5,0,315.392
1,easy,2,6,1,297.744
1,easy,2,7,0,645.206
1,easy,2,8,0,327
1,easy,2,9,1,697.004
1,easy,2,10,0,343.73
1,easy,3,1,1,609.256
1,easy,3,2,0,212.638
1,easy,3,3,1,260.205
1,easy,3,4,1,209.902
1,easy,3,5,1,260.059
1,easy,3,6,0,383.541
1,easy,3,7,1,545.93
1,easy,3,8,0,324.048
1,easy,3,9,1,722.695
1,easy,3,10,1,283.733
1,easy,4,1,1,521.443
1,easy,4,2,0,257.221
1,easy,4,3,0,382.508
1,easy,4,4,1,170.219
1,easy,4,5,0,303.255
1,easy,4,6,1,319.173
1,easy,4,7,1,466.572
1,easy,4,8,0,350.439
1,easy,4,9,1,715.569
1,easy,4,10,0,342.577
1,easy,5,1,0,697.365
1,easy,5,2,0,205.988
1,easy,5,3,0,315.67
1,easy,5,4,1,242.721
1,easy,5,5,0,313.857
1,easy,5,6,0,401.282
1,easy,5,7,1,595.645
1,easy,5,8,0,330.524
1,easy,5,9,1,614.306
1,easy,5,10,1,332.035
1,easy,6,1,1,576.588
1,easy,6,2,0,206.604
1,easy,6,3,0,382.437
1,easy,6,4,1,213.674
1,easy,6,5,0,380.557
1,easy,6,6,0,352.294
1,easy,6,7,1,495.815
1,easy,6,8,0,358.188
1,easy,6,9,1,674.112
1,easy,6,10,0,357.249
1,easy,7,1,1,565.797
1,easy,7,2,0,233.502
1,easy,7,3,1,279.598
1,easy,7,4,1,199.482
1,easy,7,5,1,275.699
1,easy,7,6,1,283.379
1,easy,7,7,1,606.112
1,easy,7,8,0,376.318
1,easy,7,9,1,635.168
1,easy,7,10,0,422.02
1,easy,8,1,1,693.541
1,easy,8,2,0,218.11
1,easy,8,3,1,226.807
1,easy,8,4,0,232.73
1,easy,8,5,1,228.806
1,easy,8,6,0,388.81
1,easy,8,7,1,601.287
1,easy,8,8,0,321.819
1,easy,8,9,1,668.721
1,easy,8,10,0,280.946
1,easy,9,1,1,633.41
1,easy,9,2,0,211.161
1,easy,9,3,1,301.246
1,easy,9,4,1,237.264
1,easy,9,5,1,217.429
1,easy,9,6,0,424.004
1,easy,9,7,1,488.041
1,easy,9,8,0,296.931
1,easy,9,9,1,766.665
1,easy,9,10,1,272.878
1,easy,10,1,0,672.692
1,easy,10,2,1,182.911
1,easy,10,3,0,374.098
1,easy,10,4,0,278.676
1,easy,10,5,1,241.79
1,easy,10,6,0,446.677
1,easy,10,7,1,495.15
1,easy,10,8,1,286.09
1,easy,10,9,0,671.661
1,easy,10,10,0,406.934
1,easy,11,1,1,512.825
1,easy,11,2,0,232.887
1,easy,11,3,0,291.493
1,easy,11,4,0,251.562
1,easy,11,5,1,273.044
1,easy,11,6,0,371.311
1,easy,11,7,0,677.686
1,easy,11,8,0,362.842
1,easy,11,9,0,652.57
1,easy,11,10,0,352.039
1,easy,12,1,1,565.157
1,easy,12,2,0,247.926
1,easy,12,3,0,348.353
1,easy,12,4,1,217.273
1,easy,12,5,1,253.104
1,easy,12,6,0,421.123
1,easy,12,7,1,439.478
1,easy,12,8,0,324.9
1,easy,12,9,0,840.302
1,easy,12,10,0,347.588
1,easy,13,1,1,571.439
1,easy,13,2,0,220.645
1,easy,13,3,1,290.42
1,easy,13,4,0,266.625
1,easy,13,5,0,329.27
1,easy,13,6,0,396.701
1,easy,13,7,0,669.497
1,easy,13,8,0,360.202
1,easy,13,9,1,619.624
1,easy,13,10,0,409.151
1,easy,14,1,1,585.042
1,easy,14,2,0,203.05
1,easy,14,3,0,394.78
1,easy,14,4,1,249.951
1,easy,14,5,1,261.627
1,easy,14,6,0,394.737
1,easy,14,7,1,598.084
1,easy,14,8,0,310.851
1,easy,14,9,0,876.948
1,easy,14,10,0,338.229
1,easy,15,1,1,580.862
1,easy,15,2,0,246.506
1,easy,15,3,0,369.311
1,easy,15,4,0,322.021
1,easy,15,5,1,260.465
1,easy,15,6,0,391.936
1,easy,15,7,1,519.05
1,easy,15,8,0,343.159
1,easy,15,9,1,682.458
1,easy,15,10,1,320.328
1,easy,16,1,1,468.547
1,easy,16,2,1,182.734
1,easy,16,3,1,286.546
1,easy,16,4,1,201.166
1,easy,16,5,0,347.579
1,easy,16,6,0,371.6
1,easy,16,7,1,453.278
1,easy,16,8,0,427.227
1,easy,16,9,1,572.701
1,easy,16,10,1,320.658
1,easy,17,1,1,639.06
1,easy,17,2,1,212.593
1,easy,17,3,0,351.412
1,easy,17,4,1,185.807
1,easy,17,5,1,279.038
1,easy,17,6,1,302.826
1,easy,17,7,1,475.85
1,easy,17,8,0,359.907
1,easy,17,9,1,663.577
1,easy,17,10,0,390.472
1,easy,18,1,1,561.535
1,easy,18,2,0,229.155
1,easy,18,3,1,266.166
1,easy,18,4,1,244.671
1,easy,18,5,0,311.84
1,easy,18,6,0,306.335
1,easy,18,7,0,545.071
1,easy,18,8,1,259.408
1,easy,18,9,1,651.997
1,easy,18,10,0,327.56
1,easy,19,1,1,683.223
1,easy,19,2,1,174.451
1,easy,19,3,0,374.977
1,easy,19,4,0,265.704
1,easy,19,5,0,278.024
1,easy,19,6,0,390.528
1,easy,19,7,1,543.237
1,easy,19,8,0,336.045
1,easy,19,9,1,625.758
1,easy,19,10,0,337.409
1,easy,20,1,1,548.449
1,easy,20,2,0,244.318
1,easy,20,3,0,352.237
1,easy,20,4,1,249.289
1,easy,20,5,1,284.919
1,easy,20,6,0,389.188
1,easy,20,7,1,512.366
1,easy,20,8,0,291.321
1,easy,20,9,1,746.753
1,easy,20,10,1,313.85
1,easy,21,1,1,738.697
1,easy,21,2,0,232.24
1,easy,21,3,1,262.333
1,easy,21,4,0,241.903
1,easy,21,5,1,290.841
1,easy,21,6,0,364.948
1,easy,21,7,1,604.251
1,easy,21,8,0,280.615
1,easy,21,9,1,679.985
1,easy,21,10,0,337.332
1,easy,22,1,1,614.097
1,easy,22,2,0,215.268
1,easy,22,3,0,467.603
1,easy,22,4,0,256.217
1,easy,22,5,1,274.463
1,easy,22,6,1,271.77
1,easy,22,7,1,568.294
1,easy,22,8,0,304.246
1,easy,22,9,1,606.718
1,easy,22,10,0,381.645
1,easy,23,1,1,468.25
1,easy,23,2,0,207.05
1,easy,23,3,0,336.501
1,easy,23,4,1,197.232
1,easy,23,5,0,321.64
1,easy,23,6,0,370.436
1,easy,23,7,1,494.411
1,easy,23,8,0,338.274
1,easy,23,9,1,635.254
1,easy,23,10,1,301.956
1,easy,24,1,1,508.53
1,easy,24,2,0,235.592
1,easy,24,3,0,341.417
1,easy,24,4,1,230.75
1,easy,24,5,0,333.622
1,easy,24,6,0,364.435
1,easy,24,7,1,519.113
1,easy,24,8,0,362.105
1,easy,24,9,1,645.869
1,easy,24,10,1,274.43
1,easy,25,1,1,599.778
1,easy,25,2,0,222.313
1,easy,25,3,1,234.945
1,easy,25,4,0,273.18
1,easy,25,5,0,357.445
1,easy,25,6,0,341.07
1,easy,25,7,1,534.878
1,easy,25,8,0,351.388
1,easy,25,9,1,694.083
1,easy,25,10,0,371.126
1,easy,26,1,1,526.241
1,easy,26,2,0,245.879
1,easy,26,3,0,357.22
1,easy,26,4,0,215.848
1,easy,26,5,1,231.016
1,easy,26,6,0,353.569
1,easy,26,7,0,578.161
1,easy,26,8,0,327.161
1,easy,26,9,0,867.475
1,easy,26,10,1,303.768
1,easy,27,1,1,533.514
1,easy,27,2,0,226.098
1,easy,27,3,1,253.243
1,easy,27,4,0,263.282
1,easy,27,5,0,295.631
1,easy,27,6,0,440.858
1,easy,27,7,0,585.23
1,easy,27,8,0,291.247
1,easy,27,9,0,660.793
1,easy,27,10,1,253.061
1,easy,28,1,1,468.652
1,easy,28,2,0,260.815
1,easy,28,3,1,332.729
1,easy,28,4,1,201.093
1,easy,28,5,1,288.5
1,easy,28,6,0,350.684
1,easy,28,7,1,650.916
1,easy,28,8,0,299.366
1,easy,28,9,0,900.361
1,easy,28,10,1,290.775
1,easy,29,1,1,480.502
1,easy,29,2,0,249.908
1,easy,29,3,1,341.328
1,easy,29,4,0,259.957
1,easy,29,5,0,308.62
1,easy,29,6,0,355.535
1,easy,29,7,0,677.284
1,easy,29,8,0,284.284
1,easy,29,9,1,569.602
1,easy,29,10,0,350.707
1,easy,30,1,1,553.288
1,easy,30,2,1,184.963
1,easy,30,3,0,378.395
1,easy,30,4,1,232.058
1,easy,30,5,1,251.519
1,easy,30,6,0,420.261
1,easy,30,7,1,593.752
1,easy,30,8,0,323.922
1,easy,30,9,0,776.019
1,easy,30,10,0,379.625
1,easy,31,1,1,602.129
1,easy,31,2,0,241.02
1,easy,31,3,1,302.749
1,easy,31,4,0,253.011
1,easy,31,5,0,337.843
1,easy,31,6,1,296.631
1,easy,31,7,1,436.454
1,easy,31,8,0,298.209
1,easy,31,9,1,676.551
1,easy,31,10,0,319.382
1,easy,32,1,0,669.123
1,easy,32,2,1,186.109
1,easy,32,3,0,330.834
1,easy,32,4,0,292.656
1,easy,32,5,1,330.342
1,easy,32,6,0,345.775
1,easy,32,7,1,480.07
1,easy,32,8,0,359.279
1,easy,32,9,1,630.744
1,easy,32,10,1,313.784
1,easy,33,1,1,505.78
1,easy,33,2,0,210.663
1,easy,33,3,1,266.105
1,easy,33,4,0,241.282
1,easy,33,5,1,278.182
1,easy,33,6,1,303.41
1,easy,33,7,1,518.042
1,easy,33,8,0,400.45
1,easy,33,9,1,689.456
1,easy,33,10,0,353.128
1,easy,34,1,1,627.599
1,easy,34,2,1,197.467
1,easy,34,3,0,367.898
1,easy,34,4,1,219.658
1,easy,34,5,1,259.025
1,easy,34,6,0,353.994
1,easy,34,7,0,652.339
1,easy,34,8,0,283.838
1,easy,34,9,1,770.214
1,easy,34,10,1,253.787
1,easy,35,1,1,562.506
1,easy,35,2,0,232.799
1,easy,35,3,1,283.459
1,easy,35,4,0,277.111
1,easy,35,5,1,267.57
1,easy,35,6,0,322.377
1,easy,35,7,1,529.653
1,easy,35,8,0,325.191
1,easy,35,9,1,706.14
1,easy,35,10,0,344.306
1,easy,36,1,1,583.577
1,easy,36,2,0,233.619
1,easy,36,3,0,340.828
1,easy,36,4,0,286.812
1,easy,36,5,0,300.508
1,easy,36,6,1,274.112
1,easy,36,7,1,560.652
1,easy,36,8,0,356.749
1,easy,36,9,1,857.747
1,easy,36,10,1,315.25
1,easy,37,1,1,610.095
1,easy,37,2,0,215.523
1,easy,37,3,1,327.125
1,easy,37,4,0,273.448
1,easy,37,5,1,266.831
1,easy,37,6,0,400.074
1,easy,37,7,0,550.252
1,easy,37,8,0,367.138
1,easy,37,9,1,652.405
1,easy,37,10,1,317.924
1,easy,38,1,1,674.323
1,easy,38,2,1,225.121
1,easy,38,3,1,285.558
1,easy,38,4,0,240.623
1,easy,38,5,1,256.819
1,easy,38,6,0,315.302
1,easy,38,7,1,629.433
1,easy,38,8,0,401.534
1,easy,38,9,0,757.456
1,easy,38,10,1,341.529
1,easy,39,1,1,515.619
1,easy,39,2,1,186.907
1,easy,39,3,0,314.94
1,easy,39,4,0,289.917
1,easy,39,5,1,271.004
1,easy,39,6,0,400.242
1,easy,39,7,1,606.527
1,easy,39,8,0,323.006
1,easy,39,9,1,613.894
1,easy,39,10,1,293.704
1,easy,40,1,1,461.752
1,easy,40,2,0,233.854
1,easy,40,3,0,327.506
1,easy,40,4,0,269.049
1,easy,40,5,0,346.522
1,easy,40,6,0,448.535
1,easy,40,7,1,544.694
1,easy,40,8,0,318.131
1,easy,40,9,1,576.35
1,easy,40,10,1,308.804
1,easy,41,1,1,738.155
1,easy,41,2,0,244.061
1,easy,41,3,0,371.845
1,easy,41,4,1,201.546
1,easy,41,5,0,303.846
1,easy,41,6,0,386.93
1,easy,41,7,1,625.826
1,easy,41,8,0,356.122
1,easy,41,9,0,800.822
1,easy,41,10,1,309.257
1,easy,42,1,1,671.568
1,easy,42,2,0,233.422
1,easy,42,3,0,378.383
1,easy,42,4,1,251.814
1,easy,42,5,1,260.471
1,easy,42,6,0,381.567
1,easy,42,7,1,547.842
1,easy,42,8,0,384.805
1,easy,42,9,1,640.724
1,easy,42,10,0,370.718
1,easy,43,1,1,513.407
1,easy,43,2,0,227.077
1,easy,43,3,0,378.303
1,easy,43,4,1,240.783
1,easy,43,5,0,345.762
1,easy,43,6,1,292.197
1,easy,43,7,0,548.454
1,easy,43,8,0,260.482
1,easy,43,9,1,576.088
1,easy,43,10,1,231.048
1,easy,44,1,1,544.746
1,easy,44,2,0,209.088
1,easy,44,3,0,359.889
1,easy,44,4,1,158.6
1,easy,44,5,0,374.543
1,easy,44,6,0,354.739
1,easy,44,7,0,675.018
1,easy,44,8,0,351.094
1,easy,44,9,1,663.821
1,easy,44,10,1,307.374
1,easy,45,1,1,579.857
1,easy,45,2,0,209.34
1,easy,45,3,1,294.528
1,easy,45,4,1,205.477
1,easy,45,5,0,263.302
1,easy,45,6,0,349.043
1,easy,45,7,0,672.326
1,easy,45,8,0,363.105
1,easy,45,9,1,618.362
1,easy,45,10,1,286.106
1,easy,46,1,1,597.417
1,easy,46,2,0,298.755
1,easy,46,3,0,363.931
1,easy,46,4,1,182.053
1,easy,46,5,0,343.21
1,easy,46,6,0,427.304
1,easy,46,7,1,498.005
1,easy,46,8,0,273.355
1,easy,46,9,1,734.431
1,easy,46,10,0,407.271
1,easy,47,1,1,487.389
1,easy,47,2,0,253.264
1,easy,47,3,0,349.698
1,easy,47,4,1,238.599
1,easy,47,5,1,261.461
1,easy,47,6,0,307.857
1,easy,47,7,1,670.48
1,easy,47,8,0,345.037
1,easy,47,9,1,677.784
1,easy,47,10,0,391.923
1,easy,48,1,1,537.363
1,easy,48,2,0,211.264
1,easy,48,3,0,352.161
1,easy,48,4,1,228.821
1,easy,48,5,0,268.307
1,easy,48,6,0,436.693
1,easy,48,7,1,617.049
1,easy,48,8,0,345.702
1,easy,48,9,1,634.163
1,easy,48,10,0,302.71
1,easy,49,1,1,493.644
1,easy,49,2,0,259.677
1,easy,49,3,0,363.945
1,easy,49,4,0,244.745
1,easy,49,5,0,373.683
1,easy,49,6,0,334.8
1,easy,49,7,1,659.749
1,easy,49,8,0,351.622
1,easy,49,9,1,777.08
1,easy,49,10,0,360.674
1,easy,50,1,1,562.751
1,easy,50,2,0,233.944
1,easy,50,3,0,346.035
1,easy,50,4,0,250.888
1,easy,50,5,1,275.558
1,easy,50,6,0,342.267
1,easy,50,7,1,488.073
1,easy,50,8,0,339.094
1,easy,50,9,1,614.974
1,easy,50,10,1,330.599
1,easy,51,1,1,617.289
1,easy,51,2,0,264.153
1,easy,51,3,1,277.655
1,easy,51,4,0,271.393
1,easy,51,5,1,282.315
1,easy,51,6,0,351.319
1,easy,51,7,0,664.201
1,easy,51,8,0,296.719
1,easy,51,9,1,776.712
1,easy,51,10,1,314.072
1,easy,52,1,1,540.772
1,easy,52,2,0,209.538
1,easy,52,3,0,407.977
1,easy,52,4,1,189.337
1,easy,52,5,1,257.542
1,easy,52,6,0,369.809
1,easy,52,7,0,652.76
1,easy,52,8,0,408.915
1,easy,52,9,1,747.376
1,easy,52,10,1,249.651
1,easy,53,1,1,667.602
1,easy,53,2,0,239.516
1,easy,53,3,0,348.908
1,easy,53,4,1,169.615
1,easy,53,5,0,325.242
1,easy,53,6,0,391.068
1,easy,53,7,1,553.055
1,easy,53,8,1,274.819
1,easy,53,9,1,618.181
1,easy,53,10,0,306.873
1,easy,54,1,1,603.495
1,easy,54,2,0,252.931
1,easy,54,3,1,309.544
1,easy,54,4,1,195.043
1,easy,54,5,1,309.322
1,easy,54,6,0,439.165
1,easy,54,7,1,582.83
1,easy,54,8,0,314.168
1,easy,54,9,1,689.478
1,easy,54,10,0,315.269
1,easy,55,1,1,507.709
1,easy,55,2,0,252.149
1,easy,55,3,1,290.052
1,easy,55,4,1,211.818
1,easy,55,5,1,235.664
1,easy,55,6,0,412.021
1,easy,55,7,1,549.03
1,easy,55,8,0,288.532
1,easy,55,9,1,828.712
1,easy,55,10,0,359.546
1,easy,56,1,0,627.689
1,easy,56,2,1,204.65
1,easy,56,3,1,255.093
1,easy,56,4,1,206.438
1,easy,56,5,0,313.295
1,easy,56,6,0,389.416
1,easy,56,7,1,439.07
1,easy,56,8,0,447.098
1,easy,56,9,1,666.963
1,easy,56,10,1,245.815
1,easy,57,1,1,519.351
1,easy,57,2,0,271.076
1,easy,57,3,1,288.11
1,easy,57,4,0,258.547
1,easy,57,5,1,275.595
1,easy,57,6,0,396.232
1,easy,57,7,0,592.912
1,easy,57,8,0,328.142
1,easy,57,9,1,637.274
1,easy,57,10,0,331.04
1,easy,58,1,1,485.206
1,easy,58,2,0,204.944
1,easy,58,3,0,348.911
1,easy,58,4,1,165.838
1,easy,58,5,1,222.972
1,easy,58,6,0,292.751
1,easy,58,7,1,542.284
1,easy,58,8,0,380.174
1,easy,58,9,0,643.861
1,easy,58,10,1,293.882
1,easy,59,1,0,616.928
1,easy,59,2,1,184.15
1,easy,59,3,0,321.416
1,easy,59,4,1,224.076
1,easy,59,5,0,341.571
1,easy,59,6,1,318.468
1,easy,59,7,1,610.48
1,easy,59,8,0,308.182
1,easy,59,9,1,543.33
1,easy,59,10,0,409.634
1,easy,60,1,1,474.397
1,easy,60,2,0,213.578
1,easy,60,3,0,366.563
1,easy,60,4,1,221.264
1,easy,60,5,0,317.525
1,easy,60,6,0,424.502
1,easy,60,7,1,553.567
1,easy,60,8,0,394.47
1,easy,60,9,0,865.084
1,easy,60,10,1,236.937
1,easy,61,1,1,531.907
1,easy,61,2,1,204.741
1,easy,61,3,0,319.939
1,easy,61,4,0,296.827
1,easy,61,5,0,320.077
1,easy,61,6,0,363.474
1,easy,61,7,1,583.232
1,easy,61,8,0,313.732
1,easy,61,9,0,948.214
1,easy,61,10,0,364.465
1,easy,62,1,1,572.733
1,easy,62,2,1,165.96
1,easy,62,3,0,361.622
1,easy,62,4,0,207.898
1,easy,62,5,0,337.3
1,easy,62,6,0,360.519
1,easy,62,7,1,530.547
1,easy,62,8,0,385.262
1,easy,62,9,1,767.073
1,easy,62,10,0,402.595
1,easy,63,1,1,606.01
1,easy,63,2,0,218.927
1,easy,63,3,0,364.414
1,easy,63,4,0,271.789
1,easy,63,5,0,349.081
1,easy,63,6,1,290.235
1,easy,63,7,1,521.085
1,easy,63,8,0,342.66
1,easy,63,9,1,646.922
1,easy,63,10,1,261.777
1,easy,64,1,0,808.188
1,easy,64,2,0,224.654
1,easy,64,3,1,251.084
1,easy,64,4,1,238.529
1,easy,64,5,1,209.673
1,easy,64,6,0,406.72
1,easy,64,7,1,526.036
1,easy,64,8,0,319.604
1,easy,64,9,1,684.332
1,easy,64,10,1,332.857
1,easy,65,1,1,551.257
1,easy,65,2,1,180.246
1,easy,65,3,1,247.282
1,easy,65,4,1,205.649
1,easy,65,5,1,247.195
1,easy,65,6,0,337.313
1,easy,65,7,1,698.357
1,easy,65,8,0,330.95
1,easy,65,9,1,688.672
1,easy,65,10,1,281.999
1,easy,66,1,1,604.912
1,easy,66,2,0,241.839
1,easy,66,3,0,314.994
1,easy,66,4,1,176.005
1,easy,66,5,1,332.934
1,easy,66,6,0,402.196
1,easy,66,7,1,529.242
1,easy,66,8,0,333.782
1,easy,66,9,1,646.571
1,easy,66,10,0,409.631
1,easy,67,1,1,558.704
1,easy,67,2,0,243.019
1,easy,67,3,0,328.417
1,easy,67,4,0,255.356
1,easy,67,5,1,277.159
1,easy,67,6,0,435.898
1,easy,67,7,1,571.971
1,easy,67,8,0,291.412
1,easy,67,9,1,672.945
1,easy,67,10,0,347.635
1,easy,68,1,1,487.229
1,easy,68,2,0,253.416
1,easy,68,3,0,375.178
1,easy,68,4,0,244.995
1,easy,68,5,0,398.382
1,easy,68,6,0,378.653
1,easy,68,7,1,463.079
1,easy,68,8,0,325.228
1,easy,68,9,1,660.615
1,easy,68,10,0,383.307
1,easy,69,1,1,525.971
1,easy,69,2,0,228.934
1,easy,69,3,0,382.353
1,easy,69,4,1,213.624
1,easy,69,5,0,322.756
1,easy,69,6,0,361.593
1,easy,69,7,1,536.419
1,easy,69,8,0,307.54
1,easy,69,9,1,645.886
1,easy,69,10,0,302.568
1,easy,70,1,0,576.752
1,easy,70,2,1,181.424
1,easy,70,3,0,298.392
1,easy,70,4,0,227.303
1,easy,70,5,1,239.198
1,easy,70,6,0,409.471
1,easy,70,7,1,455.37
1,easy,70,8,0,319.355
1,easy,70,9,0,794.558
1,easy,70,10,0,323.719
1,easy,71,1,1,702.012
1,easy,71,2,0,208.103
1,easy,71,3,0,412.678
1,easy,71,4,1,216.323
1,easy,71,5,0,349.051
1,easy,71,6,0,391.757
1,easy,71,7,1,476.077
1,easy,71,8,0,305.085
1,easy,71,9,1,607.759
1,easy,71,10,1,302.097
1,easy,72,1,1,661.06
1,easy,72,2,0,243.867
1,easy,72,3,0,428.026
1,easy,72,4,1,230.12
1,easy,72,5,0,293.004
1,easy,72,6,0,396.709
1,easy,72,7,1,538.841
1,easy,72,8,0,272.915
1,easy,72,9,1,638.868
1,easy,72,10,0,367.053
1,easy,73,1,1,666.649
1,easy,73,2,0,230.478
1,easy,73,3,1,307.51
1,easy,73,4,1,175.493
1,easy,73,5,1,288.49
1,easy,73,6,0,422.077
1,easy,73,7,0,661.97
1,easy,73,8,0,366.71
1,easy,73,9,1,625.012
1,easy,73,10,1,302.943
1,easy,74,1,1,645.249
1,easy,74,2,0,282.735
1,easy,74,3,0,300.444
1,easy,74,4,1,205.151
1,easy,74,5,1,256.334
1,easy,74,6,1,311.705
1,easy,74,7,1,567.27
1,easy,74,8,0,290.406
1,easy,74,9,1,699.605
1,easy,74,10,0,341.137
1,easy,75,1,0,610.497
1,easy,75,2,0,236.475
1,easy,75,3,1,272.492
1,easy,75,4,1,198.346
1,easy,75,5,1,229.786
1,easy,75,6,0,366.1
1,easy,75,7,0,487.367
1,easy,75,8,0,380.814
1,easy,75,9,0,885.629
1,easy,75,10,1,295.567
1,easy,76,1,1,542.375
1,easy,76,2,0,185.55
1,easy,76,3,0,292.407
1,easy,76,4,1,164.827
1,easy,76,5,1,328.367
1,easy,76,6,0,367.398
1,easy,76,7,1,546.488
1,easy,76,8,0,317.327
1,easy,76,9,1,593.024
1,easy,76,10,0,434.852
1,easy,77,1,1,603.467
1,easy,77,2,0,252.832
1,easy,77,3,1,264.811
1,easy,77,4,0,235.215
1,easy,77,5,1,251.263
1,easy,77,6,0,454.974
1,easy,77,7,1,555.689
1,easy,77,8,0,318.227
1,easy,77,9,1,737.063
1,easy,77,10,0,334.732
1,easy,78,1,0,721.904
1,easy,78,2,0,216.111
1,easy,78,3,0,457.591
1,easy,78,4,0,293.116
1,easy,78,5,1,266.003
1,easy,78,6,0,309.55
1,easy,78,7,1,546.998
1,easy,78,8,0,358.897
1,easy,78,9,1,811.683
1,easy,78,10,0,336.644
1,easy,79,1,1,543.7
1,easy,79,2,0,213.97
1,easy,79,3,1,374.499
1,easy,79,4,1,205.784
1,easy,79,5,0,345.866
1,easy,79,6,0,461.298
1,easy,79,7,1,517.772
1,easy,79,8,0,355.882
1,easy,79,9,0,919.555
1,easy,79,10,0,392.895
1,easy,80,1,1,521.466
1,easy,80,2,0,276.985
1,easy,80,3,0,374.81
1,easy,80,4,1,213.295
1,easy,80,5,1,278.054
1,easy,80,6,0,335.488
1,easy,80,7,1,477.707
1,easy,80,8,1,300.749
1,easy,80,9,1,545.867
1,easy,80,10,0,292.586
1,easy,81,1,1,570.566
1,easy,81,2,0,245.596
1,easy,81,3,1,296.532
1,easy,81,4,0,231.397
1,easy,81,5,0,332.556
1,easy,81,6,0,377.595
1,easy,81,7,1,414.636
1,easy,81,8,0,333.32
1,easy,81,9,1,725.787
1,easy,81,10,1,288.696
1,easy,82,1,1,468.048
1,easy,82,2,0,226.989
1,easy,82,3,0,321.308
1,easy,82,4,0,270.507
1,easy,82,5,1,267.504
1,easy,82,6,0,337.878
1,easy,82,7,1,602.713
1,easy,82,8,0,246.251
1,easy,82,9,1,604.817
1,easy,82,10,0,406.412
1,easy,83,1,1,551.592
1,easy,83,2,1,188.794
1,easy,83,3,0,452.838
1,easy,83,4,1,180.959
1,easy,83,5,1,276.663
1,easy,83,6,1,367.033
1,easy,83,7,1,500.216
1,easy,83,8,0,317.596
1,easy,83,9,1,673.504
1,easy,83,10,1,287.563
1,easy,84,1,1,545.792
1,easy,84,2,1,188.752
1,easy,84,3,0,368.078
1,easy,84,4,1,206.238
1,easy,84,5,1,280.766
1,easy,84,6,0,415.801
1,easy,84,7,0,638.846
1,easy,84,8,0,361.577
1,easy,84,9,1,642.004
1,easy,84,10,1,284.673
1,easy,85,1,1,589.69
1,easy,85,2,1,211.431
1,easy,85,3,0,352.906
1,easy,85,4,0,238.534
1,easy,85,5,0,261.257
1,easy,85,6,1,329.462
1,easy,85,7,1,537.723
1,easy,85,8,0,398.891
1,easy,85,9,0,876.943
1,easy,85,10,0,352.484
1,easy,86,1,1,539.348
1,easy,86,2,0,249.971
1,easy,86,3,0,386.825
1,easy,86,4,0,254.023
1,easy,86,5,0,325.992
1,easy,86,6,1,353.396
1,easy,86,7,1,602.274
1,easy,86,8,0,307.649
1,easy,86,9,1,543.874
1,easy,86,10,0,413.381
1,easy,87,1,1,664.987
1,easy,87,2,0,246.285
1,easy,87,3,0,394.031
1,easy,87,4,0,237.371
1,easy,87,5,1,270.353
1,easy,87,6,0,434.156
1,easy,87,7,1,434.593
1,easy,87,8,0,299.846
1,easy,87,9,1,735.645
1,easy,87,10,1,233.725
1,easy,88,1,1,593.601
1,easy,88,2,1,217.042
1,easy,88,3,1,296.574
1,easy,88,4,1,233.156
1,easy,88,5,0,296.944
1,easy,88,6,0,348.723
1,easy,88,7,1,557.555
1,easy,88,8,0,305.446
1,easy,88,9,1,624.358
1,easy,88,10,1,298.633
1,easy,89,1,0,730.779
1,easy,89,2,0,265.524
1,easy,89,3,0,391.051
1,easy,89,4,1,192.823
1,easy,89,5,1,297.195
1,easy,89,6,0,370.335
1,easy,89,7,0,605.914
1,easy,89,8,0,385.915
1,easy,89,9,1,695.976
1,easy,89,10,0,416.399
1,easy,90,1,1,627.711
1,easy,90,2,0,236.631
1,easy,90,3,1,299.517
1,easy,90,4,0,245.951
1,easy,90,5,0,320.235
1,easy,90,6,1,323.384
1,easy,90,7,0,642.911
1,easy,90,8,0,408.142
1,easy,90,9,1,738.872
1,easy,90,10,1,307.383
1,easy,91,1,1,478.032
1,easy,91,2,0,232.226
1,easy,91,3,1,345.256
1,easy,91,4,0,287.08
1,easy,91,5,1,327.784
1,easy,91,6,0,290.282
1,easy,91,7,0,858.731
1,easy,91,8,0,359.034
1,easy,91,9,0,803.588
1,easy,91,10,0,354.667
1,easy,92,1,1,576.124
1,easy,92,2,0,228.317
1,easy,92,3,1,270.696
1,easy,92,4,0,248.236
1,easy,92,5,0,362.317
1,easy,92,6,1,256.417
1,easy,92,7,0,662.731
1,easy,92,8,0,330.365
1,easy,92,9,1,688.159
1,easy,92,10,0,355.694
1,easy,93,1,1,555.403
1,easy,93,2,1,197.99
1,easy,93,3,1,271.654
1,easy,93,4,1,235.42
1,easy,93,5,1,237.618
1,easy,93,6,0,365.319
1,easy,93,7,1,535.771
1,easy,93,8,0,356.225
1,easy,93,9,1,662.155
1,easy,93,10,0,362.772
1,easy,94,1,0,948.08
1,easy,94,2,0,239.204
1,easy,94,3,0,353.667
1,easy,94,4,1,224.045
1,easy,94,5,0,262.812
1,easy,94,6,0,402.364
1,easy,94,7,0,595.03
1,easy,94,8,0,324.379
1,easy,94,9,1,674.49
1,easy,94,10,0,339.416
1,easy,95,1,1,538.459
1,easy,95,2,0,214.179
1,easy,95,3,1,289.484
1,easy,95,4,1,172.699
1,easy,95,5,1,295.37
1,easy,95,6,0,360.57
1,easy,95,7,1,513.386
1,easy,95,8,0,266.839
1,easy,95,9,0,739.326
1,easy,95,10,1,286.439
1,easy,96,1,1,518.469
1,easy,96,2,0,236.137
1,easy,96,3,1,301.195
1,easy,96,4,1,190.186
1,easy,96,5,1,311.218
1,easy,96,6,0,318.414
1,easy,96,7,1,519.325
1,easy,96,8,1,295.479
1,easy,96,9,1,602.569
1,easy,96,10,0,388.52
1,easy,97,1,1,622.637
1,easy,97,2,0,218.932
1,easy,97,3,0,321.226
1,easy,97,4,1,207.185
1,easy,97,5,0,309.852
1,easy,97,6,0,367.581
1,easy,97,7,0,604.998
1,easy,97,8,1,312.984
1,easy,97,9,1,694.94
1,easy,97,10,1,283.466
1,easy,98,1,1,545.093
1,easy,98,2,1,178.432
1,easy,98,3,0,370.203
1,easy,98,4,1,193.655
1,easy,98,5,0,308.251
1,easy,98,6,0,367.857
1,easy,98,7,1,553.431
1,easy,98,8,0,336.475
1,easy,98,9,1,700.344
1,easy,98,10,1,276.466
1,easy,99,1,1,624.47
1,easy,99,2,0,234.996
1,easy,99,3,0,375.907
1,easy,99,4,1,182.033
1,easy,99,5,0,354.853
1,easy,99,6,0,347.405
1,easy,99,7,1,492.166
1,easy,99,8,0,301.664
1,easy,99,9,1,668.393
1,easy,99,10,0,415.391
1,easy,100,1,0,806.568
1,easy,100,2,0,252.229
1,easy,100,3,0,383.424
1,easy,100,4,0,243.104
1,easy,100,5,0,343.826
1,easy,100,6,1,338.679
1,easy,100,7,1,492.82
1,easy,100,8,0,324.181
1,easy,100,9,1,635.893
1,easy,100,10,1,263.587
1,easy,101,1,1,597.605
1,easy,101,2,1,181.89
1,easy,101,3,0,398.946
1,easy,101,4,1,176.6
1,easy,101,5,1,292.506
1,easy,101,6,1,269.171
1,easy,101,7,0,656.27
1,easy,101,8,0,334.364
1,easy,101,9,1,823.813
1,easy,101,10,1,330.243
1,easy,102,1,0,691.913
1,easy,102,2,1,202.951
1,easy,102,3,0,332.575
1,easy,102,4,1,175.214
1,easy,102,5,1,241.288
1,easy,102,6,0,386.043
1,easy,102,7,1,570.343
1,easy,102,8,0,297.182
1,easy,102,9,0,741.506
1,easy,102,10,0,354.109
1,easy,103,1,1,563.506
1,easy,103,2,0,228.225
1,easy,103,3,1,294.579
1,easy,103,4,0,250.944
1,easy,103,5,0,331.541
1,easy,103,6,1,287.976
1,easy,103,7,1,436.391
1,easy,103,8,0,335.94
1,easy,103,9,1,646.326
1,easy,103,10,0,398.268
1,easy,104,1,1,622.07
1,easy,104,2,0,257.24
1,easy,104,3,1,353.778
1,easy,104,4,1,185.933
1,easy,104,5,0,334.108
1,easy,104,6,0,368.268
1,easy,104,7,1,577.771
1,easy,104,8,0,351.637
1,easy,104,9,1,622.809
1,easy,104,10,0,373.905
1,easy,105,1,0,707.354
1,easy,105,2,0,244.197
1,easy,105,3,1,339.982
1,easy,105,4,1,211.253
1,easy,105,5,0,364.082
1,easy,105,6,0,338.976
1,easy,105,7,1,554.405
1,easy,105,8,0,301.084
1,easy,105,9,0,856.627
1,easy,105,10,1,273.626
1,easy,106,1,1,672.876
1,easy,106,2,0,232.49
1,easy,106,3,1,277.349
1,easy,106,4,0,214.972
1,easy,106,5,0,373.184
1,easy,106,6,1,341.848
1,easy,106,7,0,701.479
1,easy,106,8,0,237.984
1,easy,106,9,0,743.466
1,easy,106,10,1,296.892
1,easy,107,1,0,789.911
1,easy,107,2,0,272.251
1,easy,107,3,1,275.806
1,easy,107,4,1,237.554
1,easy,107,5,0,314.226
1,easy,107,6,0,338.049
1,easy,107,7,1,600.876
1,easy,107,8,0,269.458
1,easy,107,9,1,655.802
1,easy,107,10,1,310.155
1,easy,108,1,1,569.788
1,easy,108,2,0,241.974
1,easy,108,3,0,357.785
1,easy,108,4,1,200.948
1,easy,108,5,1,259.046
1,easy,108,6,0,388.902
1,easy,108,7,1,462.237
1,easy,108,8,0,380.581
1,easy,108,9,1,610.009
1,easy,108,10,1,229.36
1,easy,109,1,1,411.908
1,easy,109,2,0,260.317
1,easy,109,3,0,337.922
1,easy,109,4,1,199.196
1,easy,109,5,1,261.408
1,easy,109,6,0,419.533
1,easy,109,7,1,491.663
1,easy,109,8,0,328.703
1,easy,109,9,1,814.401
1,easy,109,10,0,343.886
1,easy,110,1,1,587.349
1,easy,110,2,0,225.688
1,easy,110,3,1,260.348
1,easy,110,4,1,265.037
1,easy,110,5,1,282.062
1,easy,110,6,0,380.704
1,easy,110,7,1,529.868
1,easy,110,8,0,350.435
1,easy,110,9,1,731.764
1,easy,110,10,1,270.603
1,easy,111,1,1,506.276
1,easy,111,2,0,263.028
1,easy,111,3,1,305.246
1,easy,111,4,0,226.567
1,easy,111,5,1,263.791
1,easy,111,6,0,416.979
1,easy,111,7,1,488.04
1,easy,111,8,0,299.529
1,easy,111,9,0,861.984
1,easy,111,10,1,246.256
1,easy,112,1,1,580.944
1,easy,112,2,0,226.909
1,easy,112,3,1,260.325
1,easy,112,4,1,198.666
1,easy,112,5,0,297.366
1,easy,112,6,0,335.757
1,easy,112,7,1,572.151
1,easy,112,8,1,271.374
1,easy,112,9,1,652.796
1,easy,112,10,0,338.006
1,easy,113,1,1,561.736
1,easy,113,2,1,203.925
1,easy,113,3,1,283.841
1,easy,113,4,0,219.218
1,easy,113,5,1,265.519
1,easy,113,6,0,313.89
1,easy,113,7,1,534.484
1,easy,113,8,0,352.441
1,easy,113,9,1,631.378
1,easy,113,10,0,299.232
1,easy,114,1,1,569.36
1,easy,114,2,0,244.036
1,easy,114,3,1,320.67
1,easy,114,4,1,189.026
1,easy,114,5,0,281.331
1,easy,114,6,0,355.784
1,easy,114,7,1,468.22
1,easy,114,8,0,329.491
1,easy,114,9,0,670.775
1,easy,114,10,1,250.124
1,easy,115,1,1,444.468
1,easy,115,2,0,226.266
1,easy,115,3,1,316.43
1,easy,115,4,1,211.073
1,easy,115,5,1,303.982
1,easy,115,6,0,461.445
1,easy,115,7,1,490.788
1,easy,115,8,0,367.913
1,easy,115,9,0,858.091
1,easy,115,10,1,293.366
1,easy,116,1,1,560.607
1,easy,116,2,0,256.021
1,easy,116,3,0,356.05
1,easy,116,4,1,199.288
1,easy,116,5,1,273.369
1,easy,116,6,0,399.275
1,easy,116,7,0,533.887
1,easy,116,8,0,366.083
1,easy,116,9,1,711.785
1,easy,116,10,1,334.489
1,easy,117,1,1,583.431
1,easy,117,2,0,222.396
1,easy,117,3,0,350.912
1,easy,117,4,0,223.914
1,easy,117,5,1,272.239
1,easy,117,6,0,342.918
1,easy,117,7,1,509.229
1,easy,117,8,0,407.328
1,easy,117,9,0,774.928
1,easy,117,10,0,414.186
1,easy,118,1,1,466.974
1,easy,118,2,0,224.625
1,easy,118,3,1,245.58
1,easy,118,4,1,180.905
1,easy,118,5,1,249.042
1,easy,118,6,0,390.118
1,easy,118,7,1,504.208
1,easy,118,8,0,333.887
1,easy,118,9,1,697.511
1,easy,118,10,1,328.432
1,easy,119,1,1,744.119
1,easy,119,2,1,212.48
1,easy,119,3,1,293.125
1,easy,119,4,1,200.916
1,easy,119,5,1,240.107
1,easy,119,6,0,400.623
1,easy,119,7,0,693.141
1,easy,119,8,0,393.486
1,easy,119,9,1,643.49
1,easy,119,10,0,347.133
1,easy,120,1,1,570.822
1,easy,120,2,0,260.43
1,easy,120,3,0,358.988
1,easy,120,4,1,266.132
1,easy,120,5,0,306.006
1,easy,120,6,1,297.676
1,easy,120,7,1,499.44
1,easy,120,8,0,285.252
1,easy,120,9,1,552.065
1,easy,120,10,1,300.497
1,hard,1,1,1,606.33
1,hard,1,2,0,263.423
1,hard,1,3,1,362.805
1,hard,1,4,0,286.22
1,hard,1,5,0,397.395
1,hard,1,6,0,497.827
1,hard,1,7,1,670.894
1,hard,1,8,0,388.926
1,hard,1,9,1,642.047
1,hard,1,10,0,423.27
1,hard,2,1,1,619.595
1,hard,2,2,0,265.652
1,hard,2,3,0,371.905
1,hard,2,4,0,345.23
1,hard,2,5,1,318.369
1,hard,2,6,0,456.913
1,hard,2,7,1,549.307
1,hard,2,8,0,427.3
1,hard,2,9,1,786.161
1,hard,2,10,1,456.106
1,hard,3,1,1,678.053
1,hard,3,2,0,224.765
1,hard,3,3,1,317.904
1,hard,3,4,0,299.151
1,hard,3,5,0,375.818
1,hard,3,6,0,410.258
1,hard,3,7,1,670.407
1,hard,3,8,1,315.594
1,hard,3,9,1,751.184
1,hard,3,10,1,370.097
1,hard,4,1,1,668.217
1,hard,4,2,0,286.687
1,hard,4,3,1,363.863
1,hard,4,4,1,251.255
1,hard,4,5,1,313.5
1,hard,4,6,0,320.593
1,hard,4,7,0,646.071
1,hard,4,8,0,411.55
1,hard,4,9,1,686.252
1,hard,4,10,0,353.53
1,hard,5,1,0,856.287
1,hard,5,2,0,282.217
1,hard,5,3,0,415.899
1,hard,5,4,0,291.943
1,hard,5,5,1,307.417
1,hard,5,6,0,433.487
1,hard,5,7,1,609.037
1,hard,5,8,0,363.86
1,hard,5,9,1,812.032
1,hard,5,10,1,336.735
1,hard,6,1,1,675.914
1,hard,6,2,0,307.124
1,hard,6,3,0,405.175
1,hard,6,4,0,291.858
1,hard,6,5,0,353.459
1,hard,6,6,0,429.036
1,hard,6,7,1,545.949
1,hard,6,8,0,383.649
1,hard,6,9,1,847.532
1,hard,6,10,0,376.117
1,hard,7,1,1,728.896
1,hard,7,2,0,232.789
1,hard,7,3,0,409.373
1,hard,7,4,0,326.481
1,hard,7,5,1,262.482
1,hard,7,6,0,417.391
1,hard,7,7,0,793.668
1,hard,7,8,0,440.414
1,hard,7,9,1,665.021
1,hard,7,10,1,328.254
1,hard,8,1,1,670.348
1,hard,8,2,0,270.041
1,hard,8,3,1,394.917
1,hard,8,4,1,229.505
1,hard,8,5,0,456.683
1,hard,8,6,0,548.632
1,hard,8,7,1,600.794
1,hard,8,8,0,455.678
1,hard,8,9,1,763.865
1,hard,8,10,1,332.927
1,hard,9,1,1,684.043
1,hard,9,2,0,266.693
1,hard,9,3,1,345.273
1,hard,9,4,0,299.766
1,hard,9,5,1,295.546
1,hard,9,6,0,342.431
1,hard,9,7,1,583.219
1,hard,9,8,0,457.089
1,hard,9,9,1,956.882
1,hard,9,10,1,298.467
1,hard,10,1,1,694.34
1,hard,10,2,0,272.169
1,hard,10,3,0,484.047
1,hard,10,4,0,315.974
1,hard,10,5,0,393.643
1,hard,10,6,0,476.777
1,hard,10,7,0,763.779
1,hard,10,8,0,319.624
1,hard,10,9,1,605.345
1,hard,10,10,1,306.66
1,hard,11,1,0,740.551
1,hard,11,2,0,254.8
1,hard,11,3,1,328.257
1,hard,11,4,1,236.507
1,hard,11,5,0,344.89
1,hard,11,6,0,443.058
1,hard,11,7,1,609.679
1,hard,11,8,0,335.658
1,hard,11,9,1,843.329
1,hard,11,10,1,330.584
1,hard,12,1,0,788.846
1,hard,12,2,0,298.728
1,hard,12,3,1,339.29
1,hard,12,4,1,227.898
1,hard,12,5,1,292.219
1,hard,12,6,0,463.008
1,hard,12,7,1,607.517
1,hard,12,8,0,427.149
1,hard,12,9,1,773.961
1,hard,12,10,0,346.564
1,hard,13,1,1,624.243
1,hard,13,2,0,302.418
1,hard,13,3,1,371.245
1,hard,13,4,0,267.389
1,hard,13,5,0,401.086
1,hard,13,6,0,468.423
1,hard,13,7,1,633.929
1,hard,13,8,0,363.784
1,hard,13,9,1,748.764
1,hard,13,10,1,318.927
1,hard,14,1,0,750.313
1,hard,14,2,0,244.317
1,hard,14,3,1,323.109
1,hard,14,4,0,297.914
1,hard,14,5,0,369.022
1,hard,14,6,0,411.774
1,hard,14,7,0,755.545
1,hard,14,8,0,343.127
1,hard,14,9,1,754.409
1,hard,14,10,1,325.145
1,hard,15,1,1,666.36
1,hard,15,2,1,198.387
1,hard,15,3,0,383.718
1,hard,15,4,1,271.536
1,hard,15,5,1,330.856
1,hard,15,6,0,520.314
1,hard,15,7,1,627.541
1,hard,15,8,0,374.916
1,hard,15,9,0,972.171
1,hard,15,10,0,428.366
1,hard,16,1,1,710.786
1,hard,16,2,0,295.388
1,hard,16,3,0,437.484
1,hard,16,4,1,215.739
1,hard,16,5,1,285.856
1,hard,16,6,1,338.211
1,hard,16,7,1,560.211
1,hard,16,8,0,379.247
1,hard,16,9,0,971.028
1,hard,16,10,1,340.835
1,hard,17,1,0,890.923
1,hard,17,2,0,279.444
1,hard,17,3,1,394.518
1,hard,17,4,1,235.475
1,hard,17,5,0,399.154
1,hard,17,6,0,413.902
1,hard,17,7,0,816.303
1,hard,17,8,0,387.527
1,hard,17,9,1,829.419
1,hard,17,10,1,349.421
1,hard,18,1,1,571.463
1,hard,18,2,0,266.541
1,hard,18,3,1,327.062
1,hard,18,4,0,290.4
1,hard,18,5,1,289.557
1,hard,18,6,0,392.358
1,hard,18,7,1,545.693
1,hard,18,8,0,413.602
1,hard,18,9,1,816.395
1,hard,18,10,0,531.227
1,hard,19,1,1,653.552
1,hard,19,2,0,305.479
1,hard,19,3,0,417.055
1,hard,19,4,0,340.957
1,hard,19,5,1,302.447
1,hard,19,6,0,422.14
1,hard,19,7,1,573.813
1,hard,19,8,0,362.539
1,hard,19,9,1,765.822
1,hard,19,10,0,416.718
1,hard,20,1,1,778.926
1,hard,20,2,1,260.899
1,hard,20,3,0,431.131
1,hard,20,4,0,332.802
1,hard,20,5,1,309.567
1,hard,20,6,0,447.867
1,hard,20,7,1,648.026
1,hard,20,8,0,517.761
1,hard,20,9,1,779.081
1,hard,20,10,1,300.183
1,hard,21,1,1,717.282
1,hard,21,2,0,293.553
1,hard,21,3,0,473.941
1,hard,21,4,1,256.497
1,hard,21,5,0,389.304
1,hard,21,6,0,414.805
1,hard,21,7,1,494.269
1,hard,21,8,0,349.412
1,hard,21,9,1,863.425
1,hard,21,10,0,411.517
1,hard,22,1,1,637.434
1,hard,22,2,0,308.994
1,hard,22,3,0,424.174
1,hard,22,4,0,271.923
1,hard,22,5,1,333.369
1,hard,22,6,0,408.378
1,hard,22,7,1,617.306
1,hard,22,8,0,408.233
1,hard,22,9,0,1085.701
1,hard,22,10,1,346.483
1,hard,23,1,1,677.195
1,hard,23,2,0,271.798
1,hard,23,3,0,405.643
1,hard,23,4,1,245.517
1,hard,23,5,1,338.329
1,hard,23,6,0,421.362
1,hard,23,7,1,545.543
1,hard,23,8,0,416.523
1,hard,23,9,1,886.2
1,hard,23,10,0,456.823
1,hard,24,1,1,718.042
1,hard,24,2,1,270.718
1,hard,24,3,1,275.965
1,hard,24,4,1,269.11
1,hard,24,5,1,323.313
1,hard,24,6,1,357.997
1,hard,24,7,0,891.914
1,hard,24,8,1,284.381
1,hard,24,9,1,866.843
1,hard,24,10,0,393.235
1,hard,25,1,0,682.119
1,hard,25,2,0,257.58
1,hard,25,3,0,416.354
1,hard,25,4,1,225.887
1,hard,25,5,1,355.239
1,hard,25,6,0,397.278
1,hard,25,7,1,660.933
1,hard,25,8,0,409.488
1,hard,25,9,1,891.848
1,hard,25,10,0,385.49
1,hard,26,1,1,650.685
1,hard,26,2,0,338.309
1,hard,26,3,1,361.478
1,hard,26,4,1,260.789
1,hard,26,5,1,365.023
1,hard,26,6,0,452.769
1,hard,26,7,1,561.439
1,hard,26,8,0,462.369
1,hard,26,9,1,711.07
1,hard,26,10,0,403.109
1,hard,27,1,1,602.286
1,hard,27,2,0,239.642
1,hard,27,3,1,347.751
1,hard,27,4,0,249.265
1,hard,27,5,1,348.834
1,hard,27,6,0,488.023
1,hard,27,7,0,793.265
1,hard,27,8,0,336.34
1,hard,27,9,1,695.836
1,hard,27,10,1,342.393
1,hard,28,1,1,663.508
1,hard,28,2,0,269.874
1,hard,28,3,1,328.606
1,hard,28,4,1,211.505
1,hard,28,5,1,338.219
1,hard,28,6,0,464.62
1,hard,28,7,0,696.36
1,hard,28,8,0,375.948
1,hard,28,9,1,760.572
1,hard,28,10,1,368.928
1,hard,29,1,1,714.04
1,hard,29,2,0,239.164
1,hard,29,3,0,387.01
1,hard,29,4,0,276.575
1,hard,29,5,0,438.069
1,hard,29,6,0,437.831
1,hard,29,7,0,761.681
1,hard,29,8,0,348.133
1,hard,29,9,1,836.247
1,hard,29,10,0,435.771
1,hard,30,1,1,662.511
1,hard,30,2,0,345.576
1,hard,30,3,0,426.998
1,hard,30,4,0,287.672
1,hard,30,5,1,321.279
1,hard,30,6,0,539.72
1,hard,30,7,1,570.297
1,hard,30,8,0,392.877
1,hard,30,9,1,713.316
1,hard,30,10,1,357.944
1,hard,31,1,1,710.526
1,hard,31,2,1,222.607
1,hard,31,3,1,377.326
1,hard,31,4,1,272.22
1,hard,31,5,1,277.514
1,hard,31,6,0,472.596
1,hard,31,7,1,716.593
1,hard,31,8,0,380.883
1,hard,31,9,1,800.671
1,hard,31,10,1,347.126
1,hard,32,1,1,665.975
1,hard,32,2,0,323.307
1,hard,32,3,1,408.359
1,hard,32,4,0,306.8
1,hard,32,5,0,362.657
1,hard,32,6,0,436.527
1,hard,32,7,1,515.186
1,hard,32,8,0,310.74
1,hard,32,9,1,753.364
1,hard,32,10,1,308.344
1,hard,33,1,1,662.259
1,hard,33,2,0,324.675
1,hard,33,3,0,455.451
1,hard,33,4,1,269.788
1,hard,33,5,0,390.862
1,hard,33,6,1,372.882
1,hard,33,7,1,510.412
1,hard,33,8,0,361.53
1,hard,33,9,1,870.148
1,hard,33,10,0,331.402
1,hard,34,1,1,652.303
1,hard,34,2,0,302.796
1,hard,34,3,1,362.054
1,hard,34,4,1,250.07
1,hard,34,5,0,476.073
1,hard,34,6,0,448.38
1,hard,34,7,1,646.305
1,hard,34,8,0,391.861
1,hard,34,9,0,980.678
1,hard,34,10,0,492.893
1,hard,35,1,1,686.482
1,hard,35,2,0,272.614
1,hard,35,3,1,327.977
1,hard,35,4,1,248.149
1,hard,35,5,0,397.319
1,hard,35,6,0,434.17
1,hard,35,7,1,587.372
1,hard,35,8,0,415.384
1,hard,35,9,1,730.367
1,hard,35,10,0,431.668
1,hard,36,1,1,558.05
1,hard,36,2,0,343.475
1,hard,36,3,0,426.921
1,hard,36,4,1,264.958
1,hard,36,5,1,321.446
1,hard,36,6,0,514.845
1,hard,36,7,1,587.8
1,hard,36,8,0,448.865
1,hard,36,9,1,705.949
1,hard,36,10,0,468.559
1,hard,37,1,1,572.814
1,hard,37,2,0,265.343
1,hard,37,3,0,363.164
1,hard,37,4,1,253.808
1,hard,37,5,0,397.387
1,hard,37,6,0,425.706
1,hard,37,7,0,741.293
1,hard,37,8,0,468.044
1,hard,37,9,1,648.08
1,hard,37,10,1,373.369
1,hard,38,1,1,605.321
1,hard,38,2,0,287.206
1,hard,38,3,1,336.952
1,hard,38,4,1,223.452
1,hard,38,5,1,355.075
1,hard,38,6,0,427.259
1,hard,38,7,0,796.463
1,hard,38,8,1,335.064
1,hard,38,9,1,888.33
1,hard,38,10,1,370.554
1,hard,39,1,1,660.919
1,hard,39,2,0,269.548
1,hard,39,3,1,273.524
1,hard,39,4,1,275.527
1,hard,39,5,1,338.415
1,hard,39,6,1,388.779
1,hard,39,7,0,880.42
1,hard,39,8,0,488.45
1,hard,39,9,1,716.81
1,hard,39,10,0,414.869
1,hard,40,1,1,633.851
1,hard,40,2,0,301.34
1,hard,40,3,0,343.319
1,hard,40,4,0,342.099
1,hard,40,5,1,318.876
1,hard,40,6,0,492.922
1,hard,40,7,1,732.944
1,hard,40,8,0,413.706
1,hard,40,9,1,766.263
1,hard,40,10,0,349.739
1,hard,41,1,1,713.975
1,hard,41,2,0,349.083
1,hard,41,3,0,434.621
1,hard,41,4,0,275.027
1,hard,41,5,1,301.519
1,hard,41,6,0,449.431
1,hard,41,7,1,670.196
1,hard,41,8,0,447.419
1,hard,41,9,0,868.364
1,hard,41,10,1,330.241
1,hard,42,1,0,865.088
1,hard,42,2,0,228.476
1,hard,42,3,1,326.22
1,hard,42,4,0,321.643
1,hard,42,5,1,354.693
1,hard,42,6,0,439.923
1,hard,42,7,1,618.374
1,hard,42,8,1,327.212
1,hard,42,9,1,833.269
1,hard,42,10,1,363.586
1,hard,43,1,0,781.623
1,hard,43,2,1,285.554
1,hard,43,3,1,308.055
1,hard,43,4,0,303.615
1,hard,43,5,0,359.155
1,hard,43,6,0,365.112
1,hard,43,7,1,667.562
1,hard,43,8,0,445.145
1,hard,43,9,1,888.177
1,hard,43,10,0,398.682
1,hard,44,1,1,825.036
1,hard,44,2,0,234.397
1,hard,44,3,1,346.911
1,hard,44,4,1,223.379
1,hard,44,5,0,388.725
1,hard,44,6,1,291.22
1,hard,44,7,1,632.653
1,hard,44,8,0,349.179
1,hard,44,9,1,785.432
1,hard,44,10,0,380.645
1,hard,45,1,1,657.23
1,hard,45,2,0,241.409
1,hard,45,3,0,429.604
1,hard,45,4,1,324.896
1,hard,45,5,0,463.998
1,hard,45,6,1,337.773
1,hard,45,7,1,520.024
1,hard,45,8,0,344.117
1,hard,45,9,1,695.048
1,hard,45,10,1,292.327
1,hard,46,1,1,731.238
1,hard,46,2,0,283.591
1,hard,46,3,0,379.207
1,hard,46,4,0,284.856
1,hard,46,5,1,311.862
1,hard,46,6,1,370.726
1,hard,46,7,1,551.347
1,hard,46,8,0,375.655
1,hard,46,9,1,757.308
1,hard,46,10,1,316.991
1,hard,47,1,1,682.361
1,hard,47,2,0,322.685
1,hard,47,3,0,373.764
1,hard,47,4,0,240.468
1,hard,47,5,0,367.46
1,hard,47,6,1,349.393
1,hard,47,7,1,669.147
1,hard,47,8,0,361.404
1,hard,47,9,0,1207.549
1,hard,47,10,1,308.783
1,hard,48,1,1,671.841
1,hard,48,2,0,320.128
1,hard,48,3,0,495.648
1,hard,48,4,1,224.195
1,hard,48,5,0,382.094
1,hard,48,6,0,365.045
1,hard,48,7,1,584.112
1,hard,48,8,0,416.01
1,hard,48,9,1,840.775
1,hard,48,10,1,308.91
1,hard,49,1,1,633.128
1,hard,49,2,1,239.45
1,hard,49,3,1,360.239
1,hard,49,4,1,265.515
1,hard,49,5,1,291.153
1,hard,49,6,0,434.082
1,hard,49,7,1,578.726
1,hard,49,8,0,445.762
1,hard,49,9,1,866.711
1,hard,49,10,0,426.993
1,hard,50,1,0,874.953
1,hard,50,2,0,269.977
1,hard,50,3,1,351.888
1,hard,50,4,1,219.804
1,hard,50,5,0,366.456
1,hard,50,6,0,358.715
1,hard,50,7,1,664.147
1,hard,50,8,0,412.538
1,hard,50,9,1,666.475
1,hard,50,10,0,417.16
1,hard,51,1,1,764.522
1,hard,51,2,0,251.943
1,hard,51,3,0,398.538
1,hard,51,4,1,211.824
1,hard,51,5,0,337.474
1,hard,51,6,1,346.049
1,hard,51,7,0,797.008
1,hard,51,8,0,389.69
1,hard,51,9,1,697.204
1,hard,51,10,1,331.372
1,hard,52,1,1,833.024
1,hard,52,2,0,324.657
1,hard,52,3,1,379.137
1,hard,52,4,0,324.491
1,hard,52,5,0,369.859
1,hard,52,6,0,381.149
1,hard,52,7,1,564.416
1,hard,52,8,0,455.543
1,hard,52,9,0,904.434
1,hard,52,10,0,458.908
1,hard,53,1,1,753.277
1,hard,53,2,0,247.395
1,hard,53,3,1,427.212
1,hard,53,4,0,261.871
1,hard,53,5,0,362.487
1,hard,53,6,0,371.234
1,hard,53,7,0,843.453
1,hard,53,8,1,334.93
1,hard,53,9,1,838.318
1,hard,53,10,0,436.494
1,hard,54,1,1,674.74
1,hard,54,2,0,275.251
1,hard,54,3,0,410.852
1,hard,54,4,0,327.402
1,hard,54,5,1,392.95
1,hard,54,6,1,428.217
1,hard,54,7,1,780.924
1,hard,54,8,0,371.775
1,hard,54,9,1,740.343
1,hard,54,10,1,329.957
1,hard,55,1,1,664.221
1,hard,55,2,0,236.308
1,hard,55,3,1,333.883
1,hard,55,4,1,237.507
1,hard,55,5,1,326.166
1,hard,55,6,0,537.083
1,hard,55,7,1,550.162
1,hard,55,8,0,464.043
1,hard,55,9,1,713.571
1,hard,55,10,1,361.335
1,hard,56,1,0,821.876
1,hard,56,2,0,323.532
1,hard,56,3,0,340.291
1,hard,56,4,0,295.077
1,hard,56,5,1,354.742
1,hard,56,6,0,435.562
1,hard,56,7,1,706.598
1,hard,56,8,0,355.309
1,hard,56,9,1,699.305
1,hard,56,10,1,365.059
1,hard,57,1,0,916.13
1,hard,57,2,0,301.3
1,hard,57,3,1,343.459
1,hard,57,4,1,265.524
1,hard,57,5,0,414.736
1,hard,57,6,1,353.198
1,hard,57,7,1,600.12
1,hard,57,8,0,327.126
1,hard,57,9,1,851.591
1,hard,57,10,1,329.81
1,hard,58,1,1,676.403
1,hard,58,2,0,318.102
1,hard,58,3,0,357.653
1,hard,58,4,1,253.391
1,hard,58,5,1,271.123
1,hard,58,6,0,482.968
1,hard,58,7,0,806.104
1,hard,58,8,0,400.226
1,hard,58,9,1,702.813
1,hard,58,10,1,318.909
1,hard,59,1,1,773.973
1,hard,59,2,0,250.127
1,hard,59,3,1,362.489
1,hard,59,4,1,200.669
1,hard,59,5,1,380.937
1,hard,59,6,0,395.229
1,hard,59,7,0,703.181
1,hard,59,8,0,381.05
1,hard,59,9,1,900.452
1,hard,59,10,1,361.122
1,hard,60,1,1,546.528
1,hard,60,2,0,244.468
1,hard,60,3,1,311.513
1,hard,60,4,0,302.613
1,hard,60,5,1,290.298
1,hard,60,6,0,400.166
1,hard,60,7,1,622.335
1,hard,60,8,0,416.16
1,hard,60,9,1,848.747
1,hard,60,10,0,397.823
1,hard,61,1,1,626.816
1,hard,61,2,0,277.698
1,hard,61,3,1,381.014
1,hard,61,4,1,247.356
1,hard,61,5,0,365.321
1,hard,61,6,1,314.395
1,hard,61,7,1,688.24
1,hard,61,8,0,402.878
1,hard,61,9,0,810.542
1,hard,61,10,1,301.015
1,hard,62,1,1,666.244
1,hard,62,2,0,262.985
1,hard,62,3,1,325.181
1,hard,62,4,0,278.042
1,hard,62,5,1,339.93
1,hard,62,6,1,349.951
1,hard,62,7,0,735.929
1,hard,62,8,0,344.361
1,hard,62,9,1,897.461
1,hard,62,10,0,430.486
1,hard,63,1,1,597.099
1,hard,63,2,0,250.353
1,hard,63,3,1,336.25
1,hard,63,4,1,239.54
1,hard,63,5,1,359.774
1,hard,63,6,0,415.65
1,hard,63,7,1,567.112
1,hard,63,8,0,413.589
1,hard,63,9,1,751.989
1,hard,63,10,0,474.105
1,hard,64,1,1,628.478
1,hard,64,2,0,236.688
1,hard,64,3,0,334
1,hard,64,4,1,239.329
1,hard,64,5,1,280.466
1,hard,64,6,0,461.092
1,hard,64,7,1,606.694
1,hard,64,8,0,379.447
1,hard,64,9,0,846.121
1,hard,64,10,1,356.382
1,hard,65,1,1,690.84
1,hard,65,2,0,259.478
1,hard,65,3,0,342.546
1,hard,65,4,1,251.429
1,hard,65,5,0,454.034
1,hard,65,6,0,391.433
1,hard,65,7,1,743.593
1,hard,65,8,0,364.916
1,hard,65,9,1,850.882
1,hard,65,10,1,408.326
1,hard,66,1,0,895.097
1,hard,66,2,0,245.853
1,hard,66,3,0,418.877
1,hard,66,4,1,279.284
1,hard,66,5,1,321.29
1,hard,66,6,0,531.719
1,hard,66,7,0,705.188
1,hard,66,8,0,361.253
1,hard,66,9,1,757.09
1,hard,66,10,1,355.63
1,hard,67,1,1,633.977
1,hard,67,2,0,275.384
1,hard,67,3,1,352.075
1,hard,67,4,0,274.637
1,hard,67,5,1,292.839
1,hard,67,6,1,348.544
1,hard,67,7,0,733.125
1,hard,67,8,0,396.384
1,hard,67,9,1,680.931
1,hard,67,10,0,411.421
1,hard,68,1,1,686.106
1,hard,68,2,0,269.49
1,hard,68,3,0,412.5
1,hard,68,4,0,283.591
1,hard,68,5,0,401.448
1,hard,68,6,0,374.485
1,hard,68,7,0,742.225
1,hard,68,8,0,416.334
1,hard,68,9,1,763.418
1,hard,68,10,0,418.261
1,hard,69,1,1,660.656
1,hard,69,2,0,253.692
1,hard,69,3,1,303.902
1,hard,69,4,1,273.142
1,hard,69,5,1,338.84
1,hard,69,6,0,469.428
1,hard,69,7,1,605.039
1,hard,69,8,0,287.601
1,hard,69,9,1,687.286
1,hard,69,10,1,356.164
1,hard,70,1,1,647.229
1,hard,70,2,0,309.824
1,hard,70,3,0,436.763
1,hard,70,4,0,316.24
1,hard,70,5,0,334.829
1,hard,70,6,0,425.768
1,hard,70,7,1,640.935
1,hard,70,8,0,356.359
1,hard,70,9,0,1064.468
1,hard,70,10,0,440.993
1,hard,71,1,0,788.812
1,hard,71,2,0,228.929
1,hard,71,3,1,348.794
1,hard,71,4,0,298.368
1,hard,71,5,1,270.332
1,hard,71,6,0,413.405
1,hard,71,7,1,623.763
1,hard,71,8,0,378.442
1,hard,71,9,1,759.939
1,hard,71,10,1,383.105
1,hard,72,1,1,638.297
1,hard,72,2,0,264.549
1,hard,72,3,0,408.562
1,hard,72,4,0,302.051
1,hard,72,5,1,338.241
1,hard,72,6,0,435.224
1,hard,72,7,1,627.281
1,hard,72,8,0,341.11
1,hard,72,9,1,763.971
1,hard,72,10,1,336.121
1,hard,73,1,1,704.41
1,hard,73,2,0,274.527
1,hard,73,3,1,316.676
1,hard,73,4,0,305.289
1,hard,73,5,1,338.643
1,hard,73,6,0,430.648
1,hard,73,7,0,689.554
1,hard,73,8,0,359.991
1,hard,73,9,1,734.248
1,hard,73,10,0,411.687
1,hard,74,1,1,603.809
1,hard,74,2,0,204.32
1,hard,74,3,0,399.663
1,hard,74,4,0,299.666
1,hard,74,5,1,359.571
1,hard,74,6,1,403.807
1,hard,74,7,1,647.574
1,hard,74,8,0,321.348
1,hard,74,9,1,701.986
1,hard,74,10,1,332.45
1,hard,75,1,0,900.533
1,hard,75,2,0,314.364
1,hard,75,3,1,347.41
1,hard,75,4,1,258.904
1,hard,75,5,1,329.51
1,hard,75,6,0,453.054
1,hard,75,7,1,691.623
1,hard,75,8,0,399.782
1,hard,75,9,0,915.985
1,hard,75,10,0,450.695
1,hard,76,1,1,804.251
1,hard,76,2,0,257.489
1,hard,76,3,0,471.474
1,hard,76,4,0,347.121
1,hard,76,5,0,496.989
1,hard,76,6,1,395.856
1,hard,76,7,0,719.893
1,hard,76,8,0,435.53
1,hard,76,9,1,713.469
1,hard,76,10,0,381.671
1,hard,77,1,1,758.374
1,hard,77,2,0,244.995
1,hard,77,3,1,325.196
1,hard,77,4,0,311.635
1,hard,77,5,1,310.627
1,hard,77,6,0,393.237
1,hard,77,7,1,575.347
1,hard,77,8,0,332.02
1,hard,77,9,1,723.51
1,hard,77,10,1,394.771
1,hard,78,1,1,685.917
1,hard,78,2,0,234.634
1,hard,78,3,0,403.326
1,hard,78,4,1,206.302
1,hard,78,5,1,347.33
1,hard,78,6,0,462.785
1,hard,78,7,1,707.028
1,hard,78,8,0,360.817
1,hard,78,9,0,1041.082
1,hard,78,10,1,305.95
1,hard,79,1,1,685.352
1,hard,79,2,0,281.322
1,hard,79,3,1,378.645
1,hard,79,4,1,259.064
1,hard,79,5,0,400.033
1,hard,79,6,0,424.41
1,hard,79,7,0,761.181
1,hard,79,8,0,494.409
1,hard,79,9,0,1105.339
1,hard,79,10,0,472.413
1,hard,80,1,1,699.776
1,hard,80,2,0,218.826
1,hard,80,3,1,342.997
1,hard,80,4,1,260.679
1,hard,80,5,1,380.905
1,hard,80,6,1,315.217
1,hard,80,7,0,793.924
1,hard,80,8,0,369.437
1,hard,80,9,1,738.036
1,hard,80,10,0,370.622
1,hard,81,1,1,663.797
1,hard,81,2,0,264.72
1,hard,81,3,0,425.014
1,hard,81,4,0,360.02
1,hard,81,5,1,360.166
1,hard,81,6,1,356.334
1,hard,81,7,1,599.929
1,hard,81,8,0,362.874
1,hard,81,9,1,827.848
1,hard,81,10,0,403.534
1,hard,82,1,1,675.4
1,hard,82,2,0,294.358
1,hard,82,3,1,358.182
1,hard,82,4,1,260.055
1,hard,82,5,1,411.189
1,hard,82,6,0,497.152
1,hard,82,7,1,564.135
1,hard,82,8,0,411.535
1,hard,82,9,0,952.429
1,hard,82,10,1,372.018
1,hard,83,1,1,684.463
1,hard,83,2,0,334.385
1,hard,83,3,1,316.63
1,hard,83,4,1,256.495
1,hard,83,5,1,346.108
1,hard,83,6,0,419.291
1,hard,83,7,1,686.298
1,hard,83,8,0,330.488
1,hard,83,9,1,798.302
1,hard,83,10,0,427.537
1,hard,84,1,1,741.882
1,hard,84,2,0,286.667
1,hard,84,3,0,408.384
1,hard,84,4,1,226.523
1,hard,84,5,0,395.205
1,hard,84,6,0,498.45
1,hard,84,7,0,719.13
1,hard,84,8,0,395.594
1,hard,84,9,1,713.535
1,hard,84,10,1,328.223
1,hard,85,1,1,611.485
1,hard,85,2,0,266.422
1,hard,85,3,0,418.133
1,hard,85,4,1,221.536
1,hard,85,5,0,379.121
1,hard,85,6,0,454.036
1,hard,85,7,0,793.847
1,hard,85,8,1,344.553
1,hard,85,9,1,784.926
1,hard,85,10,0,414.191
1,hard,86,1,0,780.564
1,hard,86,2,0,270.196
1,hard,86,3,0,475.231
1,hard,86,4,0,290.649
1,hard,86,5,0,363.201
1,hard,86,6,0,377.453
1,hard,86,7,1,682.457
1,hard,86,8,1,333.831
1,hard,86,9,1,740.562
1,hard,86,10,0,432.692
1,hard,87,1,1,661.283
1,hard,87,2,0,274.321
1,hard,87,3,0,415.118
1,hard,87,4,0,307.558
1,hard,87,5,0,321.715
1,hard,87,6,0,491.947
1,hard,87,7,0,719.792
1,hard,87,8,0,413.404
1,hard,87,9,1,711.529
1,hard,87,10,0,490.987
1,hard,88,1,0,775.534
1,hard,88,2,0,296.887
1,hard,88,3,1,335.055
1,hard,88,4,1,242.572
1,hard,88,5,1,331.794
1,hard,88,6,0,482.186
1,hard,88,7,1,645.817
1,hard,88,8,0,387.099
1,hard,88,9,1,733.951
1,hard,88,10,0,430.991
1,hard,89,1,1,601.846
1,hard,89,2,0,236.362
1,hard,89,3,0,350.22
1,hard,89,4,1,252.567
1,hard,89,5,1,291.373
1,hard,89,6,0,402.082
1,hard,89,7,1,597.746
1,hard,89,8,0,386.826
1,hard,89,9,1,704.181
1,hard,89,10,1,401.185
1,hard,90,1,1,664.8
1,hard,90,2,0,285.084
1,hard,90,3,1,348.883
1,hard,90,4,1,262.779
1,hard,90,5,0,347.795
1,hard,90,6,0,453.503
1,hard,90,7,1,622.78
1,hard,90,8,0,387.537
1,hard,90,9,1,854.886
1,hard,90,10,1,357.523
1,hard,91,1,0,702.71
1,hard,91,2,0,286.904
1,hard,91,3,0,351.991
1,hard,91,4,1,265.579
1,hard,91,5,1,311.885
1,hard,91,6,0,499.406
1,hard,91,7,1,659.111
1,hard,91,8,0,431.064
1,hard,91,9,1,872.921
1,hard,91,10,0,428.47
1,hard,92,1,1,625.734
1,hard,92,2,0,296.711
1,hard,92,3,0,480.797
1,hard,92,4,0,251.445
1,hard,92,5,1,373.844
1,hard,92,6,0,464.604
1,hard,92,7,1,812.753
1,hard,92,8,0,376.051
1,hard,92,9,1,730.418
1,hard,92,10,1,331.364
1,hard,93,1,1,670.882
1,hard,93,2,1,252.345
1,hard,93,3,0,488.301
1,hard,93,4,1,200.31
1,hard,93,5,1,279.249
1,hard,93,6,1,347.942
1,hard,93,7,1,697.312
1,hard,93,8,0,362.916
1,hard,93,9,0,897.287
1,hard,93,10,1,327.304
1,hard,94,1,1,582.817
1,hard,94,2,0,244.137
1,hard,94,3,1,265.231
1,hard,94,4,0,354.105
1,hard,94,5,1,329.254
1,hard,94,6,0,424.646
1,hard,94,7,1,578.494
1,hard,94,8,0,408.551
1,hard,94,9,0,1085.313
1,hard,94,10,1,317.42
1,hard,95,1,1,656.085
1,hard,95,2,1,221.306
1,hard,95,3,0,440.351
1,hard,95,4,1,225.018
1,hard,95,5,1,304.571
1,hard,95,6,0,500.926
1,hard,95,7,1,618.47
1,hard,95,8,0,378.343
1,hard,95,9,1,853.68
1,hard,95,10,0,346.619
1,hard,96,1,1,598.811
1,hard,96,2,1,238.574
1,hard,96,3,1,315.674
1,hard,96,4,0,287.87
1,hard,96,5,0,436.616
1,hard,96,6,1,376.741
1,hard,96,7,1,567.735
1,hard,96,8,0,429.596
1,hard,96,9,0,1026.7
1,hard,96,10,1,353.197
1,hard,97,1,1,579.412
1,hard,97,2,0,256.65
1,hard,97,3,0,426.161
1,hard,97,4,0,295.277
1,hard,97,5,1,316.581
1,hard,97,6,0,444.119
1,hard,97,7,1,576.016
1,hard,97,8,0,370.653
1,hard,97,9,1,898.762
1,hard,97,10,1,342.854
1,hard,98,1,1,618.292
1,hard,98,2,1,224.256
1,hard,98,3,1,437.241
1,hard,98,4,1,199.099
1,hard,98,5,0,358.275
1,hard,98,6,1,363.265
1,hard,98,7,1,702.998
1,hard,98,8,0,376.298
1,hard,98,9,1,934.815
1,hard,98,10,1,298.443
1,hard,99,1,1,749.35
1,hard,99,2,0,241.128
1,hard,99,3,1,310.764
1,hard,99,4,0,282.059
1,hard,99,5,0,432.027
1,hard,99,6,0,429.904
1,hard,99,7,1,606.583
1,hard,99,8,0,431.279
1,hard,99,9,0,1008.777
1,hard,99,10,0,352.612
1,hard,100,1,1,600.692
1,hard,100,2,0,283.01
1,hard,100,3,0,411.744
1,hard,100,4,0,292.79
1,hard,100,5,1,265.714
1,hard,100,6,0,356.551
1,hard,100,7,1,672.689
1,hard,100,8,0,385.861
1,hard,100,9,0,1102.824
1,hard,100,10,1,391.858
1,hard,101,1,1,589.43
1,hard,101,2,0,299.679
1,hard,101,3,0,466.843
1,hard,101,4,1,236.269
1,hard,101,5,1,335.279
1,hard,101,6,0,437.948
1,hard,101,7,1,618.221
1,hard,101,8,0,362.264
1,hard,101,9,1,880.591
1,hard,101,10,1,390.66
1,hard,102,1,1,527.582
1,hard,102,2,1,224.569
1,hard,102,3,1,386.784
1,hard,102,4,1,227.103
1,hard,102,5,0,322.495
1,hard,102,6,0,518.668
1,hard,102,7,1,634.273
1,hard,102,8,0,367.432
1,hard,102,9,1,748.473
1,hard,102,10,1,333.75
1,hard,103,1,1,775.669
1,hard,103,2,1,218.783
1,hard,103,3,0,414.432
1,hard,103,4,1,236.757
1,hard,103,5,1,290.293
1,hard,103,6,0,427.283
1,hard,103,7,1,585.888
1,hard,103,8,0,351.871
1,hard,103,9,1,759.989
1,hard,103,10,1,330.763
1,hard,104,1,1,728.507
1,hard,104,2,0,295.983
1,hard,104,3,0,525.077
1,hard,104,4,1,234.083
1,hard,104,5,1,362.913
1,hard,104,6,1,409.722
1,hard,104,7,1,655.473
1,hard,104,8,0,381.849
1,hard,104,9,1,870.699
1,hard,104,10,1,309.717
1,hard,105,1,1,632.541
1,hard,105,2,0,270.026
1,hard,105,3,0,378.429
1,hard,105,4,1,251.362
1,hard,105,5,1,332.563
1,hard,105,6,0,525.388
1,hard,105,7,1,743.358
1,hard,105,8,0,383.206
1,hard,105,9,1,742.286
1,hard,105,10,1,266.274
1,hard,106,1,1,788.93
1,hard,106,2,0,249.475
1,hard,106,3,0,412.966
1,hard,106,4,1,231.738
1,hard,106,5,0,348.709
1,hard,106,6,0,491.051
1,hard,106,7,1,634.27
1,hard,106,8,0,416.36
1,hard,106,9,0,951.507
1,hard,106,10,0,393.332
1,hard,107,1,1,608.177
1,hard,107,2,0,294.683
1,hard,107,3,0,417.608
1,hard,107,4,1,240.318
1,hard,107,5,1,324.722
1,hard,107,6,0,390.903
1,hard,107,7,0,842.162
1,hard,107,8,0,369.188
1,hard,107,9,0,944.175
1,hard,107,10,0,437.047
1,hard,108,1,1,751.416
1,hard,108,2,1,227.853
1,hard,108,3,0,484.11
1,hard,108,4,1,222.337
1,hard,108,5,1,303.635
1,hard,108,6,0,395.192
1,hard,108,7,1,657.138
1,hard,108,8,0,379.263
1,hard,108,9,1,863.32
1,hard,108,10,1,335.193
1,hard,109,1,1,744.699
1,hard,109,2,0,324.596
1,hard,109,3,1,398.742
1,hard,109,4,1,280.055
1,hard,109,5,1,342.092
1,hard,109,6,0,414.801
1,hard,109,7,1,569.241
1,hard,109,8,0,400.757
1,hard,109,9,1,855.877
1,hard,109,10,0,390.921
1,hard,110,1,1,647.285
1,hard,110,2,0,298.271
1,hard,110,3,1,370.959
1,hard,110,4,1,240.862
1,hard,110,5,0,427.639
1,hard,110,6,0,381.243
1,hard,110,7,0,634.054
1,hard,110,8,1,273.923
1,hard,110,9,0,837.884
1,hard,110,10,1,375.056
1,hard,111,1,1,648.824
1,hard,111,2,0,294.783
1,hard,111,3,1,360.509
1,hard,111,4,0,274.482
1,hard,111,5,1,276.671
1,hard,111,6,0,373.55
1,hard,111,7,1,656.878
1,hard,111,8,1,310.258
1,hard,111,9,1,731.594
1,hard,111,10,1,305.1
1,hard,112,1,1,669.292
1,hard,112,2,0,267.956
1,hard,112,3,1,352.698
1,hard,112,4,0,270.053
1,hard,112,5,0,374.459
1,hard,112,6,0,401.502
1,hard,112,7,1,686.201
1,hard,112,8,0,365.014
1,hard,112,9,1,715.593
1,hard,112,10,0,445.593
1,hard,113,1,1,557.992
1,hard,113,2,1,225.034
1,hard,113,3,0,371.875
1,hard,113,4,0,239.971
1,hard,113,5,0,387.114
1,hard,113,6,0,420.541
1,hard,113,7,1,639.452
1,hard,113,8,0,441.024
1,hard,113,9,1,676.918
1,hard,113,10,1,320.811
1,hard,114,1,1,697.251
1,hard,114,2,1,189.697
1,hard,114,3,1,304.734
1,hard,114,4,0,291.277
1,hard,114,5,1,292.555
1,hard,114,6,0,399.807
1,hard,114,7,1,753.342
1,hard,114,8,0,415.585
1,hard,114,9,1,744.973
1,hard,114,10,1,262.722
1,hard,115,1,1,635.812
1,hard,115,2,0,303.705
1,hard,115,3,0,392.285
1,hard,115,4,1,239.403
1,hard,115,5,1,299.033
1,hard,115,6,0,401.574
1,hard,115,7,0,946.945
1,hard,115,8,0,432.201
1,hard,115,9,1,753.511
1,hard,115,10,1,351.211
1,hard,116,1,1,591.109
1,hard,116,2,0,296.037
1,hard,116,3,0,399.915
1,hard,116,4,0,272.425
1,hard,116,5,1,285.949
1,hard,116,6,0,417.538
1,hard,116,7,1,710.448
1,hard,116,8,0,383.761
1,hard,116,9,1,879.093
1,hard,116,10,1,397.161
1,hard,117,1,1,579.899
1,hard,117,2,1,217.277
1,hard,117,3,1,338.762
1,hard,117,4,0,258.57
1,hard,117,5,0,366.451
1,hard,117,6,0,514.939
1,hard,117,7,0,888.896
1,hard,117,8,0,440.819
1,hard,117,9,1,922.216
1,hard,117,10,1,364.966
1,hard,118,1,0,645.899
1,hard,118,2,0,289.442
1,hard,118,3,1,328.059
1,hard,118,4,1,226.001
1,hard,118,5,1,296.81
1,hard,118,6,1,322.905
1,hard,118,7,1,585.329
1,hard,118,8,0,363.706
1,hard,118,9,1,724.74
1,hard,118,10,0,411.997
1,hard,119,1,1,582.221
1,hard,119,2,0,266.29
1,hard,119,3,1,353.981
1,hard,119,4,0,292.384
1,hard,119,5,0,393.129
1,hard,119,6,0,416.035
1,hard,119,7,1,606.647
1,hard,119,8,0,416.325
1,hard,119,9,1,978.112
1,hard,119,10,1,348.148
1,hard,120,1,1,646.096
1,hard,120,2,0,310.741
1,hard,120,3,0,478.316
1,hard,120,4,1,243.301
1,hard,120,5,0,342.677
1,hard,120,6,0,396.141
1,hard,120,7,1,707.028
1,hard,120,8,0,392.782
1,hard,120,9,1,721.201
1,hard,120,10,1,315.299
2,easy,1,1,1,272.37
2,easy,1,2,1,105.779
2,easy,1,3,0,169.651
2,easy,1,4,1,124.531
2,easy,1,5,1,145.669
2,easy,1,6,0,192.8
2,easy,1,7,1,315.242
2,easy,1,8,1,160.749
2,easy,1,9,0,576.723
2,easy,1,10,1,150.955
2,easy,2,1,1,258.287
2,easy,2,2,0,128.997
2,easy,2,3,1,163.911
2,easy,2,4,1,111.223
2,easy,2,5,1,144.385
2,easy,2,6,0,246.487
2,easy,2,7,0,367.367
2,easy,2,8,0,192.306
2,easy,2,9,1,356.219
2,easy,2,10,0,226.796
2,easy,3,1,1,293.901
2,easy,3,2,0,113.323
2,easy,3,3,0,201.665
2,easy,3,4,0,151.408
2,easy,3,5,0,167.159
2,easy,3,6,1,128.826
2,easy,3,7,1,292.259
2,easy,3,8,0,187.675
2,easy,3,9,1,394.976
2,easy,3,10,1,142.253
2,easy,4,1,1,326.057
2,easy,4,2,0,136.787
2,easy,4,3,1,139.249
2,easy,4,4,1,113.476
2,easy,4,5,0,195.518
2,easy,4,6,1,158.677
2,easy,4,7,0,351.698
2,easy,4,8,0,170.943
2,easy,4,9,1,347.537
2,easy,4,10,0,170.533
2,easy,5,1,1,364.166
2,easy,5,2,0,127.728
2,easy,5,3,0,196.343
2,easy,5,4,0,149.232
2,easy,5,5,0,179.619
2,easy,5,6,1,173.591
2,easy,5,7,1,263.688
2,easy,5,8,0,185.156
2,easy,5,9,1,379.497
2,easy,5,10,0,178.267
2,easy,6,1,1,302.29
2,easy,6,2,0,136.983
2,easy,6,3,1,156.175
2,easy,6,4,0,165.073
2,easy,6,5,1,153.612
2,easy,6,6,0,190.191
2,easy,6,7,0,339.397
2,easy,6,8,0,217.571
2,easy,6,9,0,432.809
2,easy,6,10,0,166.326
2,easy,7,1,1,291.29
2,easy,7,2,0,128.653
2,easy,7,3,0,219.008
2,easy,7,4,0,137.588
2,easy,7,5,0,181.506
2,easy,7,6,0,172.824
2,easy,7,7,0,323.956
2,easy,7,8,0,207.995
2,easy,7,9,1,373.665
2,easy,7,10,0,189.14
2,easy,8,1,1,263.681
2,easy,8,2,0,139.154
2,easy,8,3,1,167.254
2,easy,8,4,0,162.621
2,easy,8,5,0,214.216
2,easy,8,6,0,187.037
2,easy,8,7,1,269.157
2,easy,8,8,0,211.97
2,easy,8,9,1,411.32
2,easy,8,10,1,148.541
2,easy,9,1,1,315.846
2,easy,9,2,1,108.358
2,easy,9,3,0,232.402
2,easy,9,4,1,106.556
2,easy,9,5,1,163.002
2,easy,9,6,0,168.68
2,easy,9,7,1,283.935
2,easy,9,8,1,151.929
2,easy,9,9,1,433.557
2,easy,9,10,1,160.387
2,easy,10,1,1,307.834
2,easy,10,2,0,119.954
2,easy,10,3,1,180.701
2,easy,10,4,0,117.015
2,easy,10,5,1,146.241
2,easy,10,6,0,210.974
2,easy,10,7,1,264.776
2,easy,10,8,0,182.625
2,easy,10,9,1,385.261
2,easy,10,10,0,201.437
2,easy,11,1,1,253.959
2,easy,11,2,0,124.086
2,easy,11,3,1,168.332
2,easy,11,4,1,95.787
2,easy,11,5,1,162.589
2,easy,11,6,1,155.721
2,easy,11,7,1,255.721
2,easy,11,8,0,191.542
2,easy,11,9,1,346.937
2,easy,11,10,0,208.004
2,easy,12,1,1,306.586
2,easy,12,2,0,135.092
2,easy,12,3,1,175.109
2,easy,12,4,0,152.897
2,easy,12,5,1,163.811
2,easy,12,6,0,219.398
2,easy,12,7,1,289.058
2,easy,12,8,0,161.404
2,easy,12,9,1,348.13
2,easy,12,10,1,174.861
2,easy,13,1,1,344.626
2,easy,13,2,1,121.082
2,easy,13,3,1,144.716
2,easy,13,4,1,111.101
2,easy,13,5,1,143.803
2,easy,13,6,0,191.77
2,easy,13,7,1,272.495
2,easy,13,8,0,164.04
2,easy,13,9,0,468.129
2,easy,13,10,1,178.673
2,easy,14,1,1,280.904
2,easy,14,2,0,130.703
2,easy,14,3,1,208.598
2,easy,14,4,0,159.351
2,easy,14,5,0,180.911
2,easy,14,6,0,212.766
2,easy,14,7,0,333.137
2,easy,14,8,0,197.434
2,easy,14,9,1,386.722
2,easy,14,10,1,158.248
2,easy,15,1,1,313.387
2,easy,15,2,0,138.982
2,easy,15,3,1,153.404
2,easy,15,4,1,114.292
2,easy,15,5,1,137.128
2,easy,15,6,0,266.135
2,easy,15,7,1,278.195
2,easy,15,8,0,232.399
2,easy,15,9,1,367.338
2,easy,15,10,1,185.59
2,easy,16,1,1,399.245
2,easy,16,2,0,114.322
2,easy,16,3,1,183.856
2,easy,16,4,0,135.811
2,easy,16,5,1,133.092
2,easy,16,6,0,253.648
2,easy,16,7,1,332.536
2,easy,16,8,0,182.331
2,easy,16,9,1,335.22
2,easy,16,10,1,153.652
2,easy,17,1,1,282.606
2,easy,17,2,1,108.13
2,easy,17,3,0,190.367
2,easy,17,4,1,118.211
2,easy,17,5,1,134.368
2,easy,17,6,0,241.069
2,easy,17,7,1,251.749
2,easy,17,8,0,165.416
2,easy,17,9,1,408.487
2,easy,17,10,0,223.88
2,easy,18,1,1,277.603
2,easy,18,2,0,119.864
2,easy,18,3,0,186.469
2,easy,18,4,0,122.355
2,easy,18,5,1,155.051
2,easy,18,6,0,184.544
2,easy,18,7,0,351.226
2,easy,18,8,1,149.152
2,easy,18,9,1,412.489
2,easy,18,10,1,178.183
2,easy,19,1,1,287.195
2,easy,19,2,0,112.532
2,easy,19,3,0,193.758
2,easy,19,4,1,119.133
2,easy,19,5,1,129.89
2,easy,19,6,0,202.075
2,easy,19,7,1,292.169
2,easy,19,8,0,180.494
2,easy,19,9,1,326.855
2,easy,19,10,1,170.482
2,easy,20,1,1,336.564
2,easy,20,2,1,102.932
2,easy,20,3,0,172.349
2,easy,20,4,1,115.242
2,easy,20,5,1,148.02
2,easy,20,6,0,189.352
2,easy,20,7,0,334.622
2,easy,20,8,0,175.389
2,easy,20,9,0,471.273
2,easy,20,10,1,168.774
2,easy,21,1,1,316.109
2,easy,21,2,0,98.678
2,easy,21,3,1,158.441
2,easy,21,4,0,146.692
2,easy,21,5,1,132.164
2,easy,21,6,0,186.625
2,easy,21,7,1,320.318
2,easy,21,8,0,209.557
2,easy,21,9,0,423.443
2,easy,21,10,1,145.587
2,easy,22,1,1,307.183
2,easy,22,2,0,108.847
2,easy,22,3,1,158.077
2,easy,22,4,1,126.955
2,easy,22,5,1,150.304
2,easy,22,6,0,214.833
2,easy,22,7,1,306.902
2,easy,22,8,0,174.828
2,easy,22,9,0,484.211
2,easy,22,10,0,189.016
2,easy,23,1,1,289.32
2,easy,23,2,1,116.014
2,easy,23,3,0,193.47
2,easy,23,4,1,108.512
2,easy,23,5,1,145.023
2,easy,23,6,0,208.167
2,easy,23,7,1,306.616
2,easy,23,8,0,192.673
2,easy,23,9,1,295.83
2,easy,23,10,0,169.848
2,easy,24,1,1,297.652
2,easy,24,2,0,148.162
2,easy,24,3,1,189.46
2,easy,24,4,0,147.476
2,easy,24,5,1,129.594
2,easy,24,6,0,224.047
2,easy,24,7,1,287.304
2,easy,24,8,0,206.953
2,easy,24,9,1,342.429
2,easy,24,10,1,195.769
2,easy,25,1,1,312.641
2,easy,25,2,0,122.073
2,easy,25,3,0,188.873
2,easy,25,4,0,155.648
2,easy,25,5,0,163.121
2,easy,25,6,1,167.507
2,easy,25,7,0,319.514
2,easy,25,8,0,207.644
2,easy,25,9,1,326.03
2,easy,25,10,0,175.295
2,easy,26,1,1,361.523
2,easy,26,2,1,107.098
2,easy,26,3,1,176.745
2,easy,26,4,1,123.989
2,easy,26,5,1,163.721
2,easy,26,6,0,217.636
2,easy,26,7,1,269.15
2,easy,26,8,1,134.229
2,easy,26,9,1,334.099
2,easy,26,10,1,122.652
2,easy,27,1,1,306.19
2,easy,27,2,1,96.083
2,easy,27,3,0,213.886
2,easy,27,4,1,115.906
2,easy,27,5,1,165.9
2,easy,27,6,0,207.699
2,easy,27,7,0,322.878
2,easy,27,8,0,165.589
2,easy,27,9,1,382.116
2,easy,27,10,0,205.993
2,easy,28,1,0,370.865
2,easy,28,2,0,137.17
2,easy,28,3,1,159.328
2,easy,28,4,1,109.042
2,easy,28,5,1,146.458
2,easy,28,6,0,184.343
2,easy,28,7,0,284.801
2,easy,28,8,0,152.625
2,easy,28,9,1,354.825
2,easy,28,10,1,159.196
2,easy,29,1,1,354.618
2,easy,29,2,0,148.008
2,easy,29,3,0,206.001
2,easy,29,4,1,87.362
2,easy,29,5,0,193.709
2,easy,29,6,0,185.961
2,easy,29,7,0,427.358
2,easy,29,8,0,224.488
2,easy,29,9,1,366.046
2,easy,29,10,0,181.253
2,easy,30,1,1,311.589
2,easy,30,2,0,118.351
2,easy,30,3,1,158.22
2,easy,30,4,0,134.087
2,easy,30,5,0,195.56
2,easy,30,6,1,190.869
2,easy,30,7,1,312.66
2,easy,30,8,0,185.226
2,easy,30,9,1,351.786
2,easy,30,10,1,150.499
2,easy,31,1,1,334.242
2,easy,31,2,0,147.133
2,easy,31,3,1,105.138
2,easy,31,4,1,122.611
2,easy,31,5,0,185.035
2,easy,31,6,0,199.572
2,easy,31,7,1,366.704
2,easy,31,8,0,193.327
2,easy,31,9,1,338.571
2,easy,31,10,1,161.491
2,easy,32,1,1,314.892
2,easy,32,2,0,158.02
2,easy,32,3,0,197.172
2,easy,32,4,1,111.612
2,easy,32,5,1,154.619
2,easy,32,6,0,200.797
2,easy,32,7,1,292.417
2,easy,32,8,0,166.969
2,easy,32,9,1,376.117
2,easy,32,10,1,168.058
2,easy,33,1,1,295.576
2,easy,33,2,1,129.799
2,easy,33,3,0,193.321
2,easy,33,4,0,153.926
2,easy,33,5,1,138.093
2,easy,33,6,0,208.13
2,easy,33,7,0,316.69
2,easy,33,8,0,177.16
2,easy,33,9,1,347.736
2,easy,33,10,1,172.957
2,easy,34,1,1,305.919
2,easy,34,2,0,142.312
2,easy,34,3,1,165.383
2,easy,34,4,1,111.624
2,easy,34,5,0,182.071
2,easy,34,6,0,199.324
2,easy,34,7,1,248.464
2,easy,34,8,0,164.885
2,easy,34,9,1,404.626
2,easy,34,10,1,182.459
2,easy,35,1,1,313.975
2,easy,35,2,0,116.404
2,easy,35,3,1,165.542
2,easy,35,4,0,140.19
2,easy,35,5,1,131.403
2,easy,35,6,0,200.201
2,easy,35,7,0,385.142
2,easy,35,8,0,197.596
2,easy,35,9,1,339.39
2,easy,35,10,0,213.475
2,easy,36,1,1,307.198
2,easy,36,2,0,143.216
2,easy,36,3,0,190.643
2,easy,36,4,0,127.047
2,easy,36,5,1,132.146
2,easy,36,6,0,210.199
2,easy,36,7,1,270.832
2,easy,36,8,0,184.754
2,easy,36,9,1,359.394
2,easy,36,10,0,196.494
2,easy,37,1,1,332.56
2,easy,37,2,0,145.403
2,easy,37,3,1,170.315
2,easy,37,4,0,162.681
2,easy,37,5,1,132.25
2,easy,37,6,0,225.329
2,easy,37,7,1,283.466
2,easy,37,8,0,194.777
2,easy,37,9,1,327.526
2,easy,37,10,1,163.756
2,easy,38,1,0,378.581
2,easy,38,2,0,136.954
2,easy,38,3,0,169.721
2,easy,38,4,1,116.847
2,easy,38,5,0,174.584
2,easy,38,6,0,199.033
2,easy,38,7,1,314.723
2,easy,38,8,0,221.196
2,easy,38,9,1,367.907
2,easy,38,10,0,200.369
2,easy,39,1,1,353.1
2,easy,39,2,0,139.686
2,easy,39,3,0,219.262
2,easy,39,4,1,110.391
2,easy,39,5,1,149.493
2,easy,39,6,0,215.278
2,easy,39,7,1,310.872
2,easy,39,8,1,157.835
2,easy,39,9,1,374.544
2,easy,39,10,0,230.912
2,easy,40,1,1,283.627
2,easy,40,2,0,117.047
2,easy,40,3,1,137.547
2,easy,40,4,0,110.832
2,easy,40,5,1,137.459
2,easy,40,6,0,188.096
2,easy,40,7,1,288.874
2,easy,40,8,0,196.413
2,easy,40,9,1,362.762
2,easy,40,10,0,213.633
2,easy,41,1,1,296.565
2,easy,41,2,0,115.794
2,easy,41,3,0,243.604
2,easy,41,4,1,118.005
2,easy,41,5,1,155.671
2,easy,41,6,1,164.418
2,easy,41,7,0,401.912
2,easy,41,8,1,145.5
2,easy,41,9,1,354.064
2,easy,41,10,1,175.254
2,easy,42,1,1,288.669
2,easy,42,2,0,126.228
2,easy,42,3,0,217.476
2,easy,42,4,1,125.376
2,easy,42,5,1,133.762
2,easy,42,6,0,209.378
2,easy,42,7,1,288.099
2,easy,42,8,0,217.746
2,easy,42,9,1,427.17
2,easy,42,10,1,164.817
2,easy,43,1,1,315.679
2,easy,43,2,0,126.207
2,easy,43,3,1,130.795
2,easy,43,4,1,118.686
2,easy,43,5,0,160.773
2,easy,43,6,0,207.252
2,easy,43,7,0,327.046
2,easy,43,8,0,207.433
2,easy,43,9,1,384.25
2,easy,43,10,0,220.805
2,easy,44,1,1,303.057
2,easy,44,2,0,116.236
2,easy,44,3,0,188.217
2,easy,44,4,0,117.884
2,easy,44,5,1,145.853
2,easy,44,6,0,187.341
2,easy,44,7,1,299.084
2,easy,44,8,0,200.939
2,easy,44,9,0,470.994
2,easy,44,10,0,202.943
2,easy,45,1,1,267.862
2,easy,45,2,0,118.562
2,easy,45,3,0,222.627
2,easy,45,4,1,89.015
2,easy,45,5,1,132.509
2,easy,45,6,0,207.928
2,easy,45,7,1,300.532
2,easy,45,8,0,184.144
2,easy,45,9,1,335.75
2,easy,45,10,1,131.431
2,easy,46,1,1,327.583
2,easy,46,2,1,110.966
2,easy,46,3,1,146.244
2,easy,46,4,0,138.579
2,easy,46,5,1,165.34
2,easy,46,6,0,206.096
2,easy,46,7,0,353.094
2,easy,46,8,0,182.947
2,easy,46,9,0,477.033
2,easy,46,10,0,236.309
2,easy,47,1,1,297.798
2,easy,47,2,0,150.325
2,easy,47,3,0,216.454
2,easy,47,4,1,130.013
2,easy,47,5,1,141.574
2,easy,47,6,1,152.718
2,easy,47,7,1,310.256
2,easy,47,8,0,205.634
2,easy,47,9,1,376.101
2,easy,47,10,1,155.647
2,easy,48,1,1,322.395
2,easy,48,2,0,130.719
2,easy,48,3,0,179.782
2,easy,48,4,1,116.57
2,easy,48,5,1,123.895
2,easy,48,6,0,234.258
2,easy,48,7,1,346.395
2,easy,48,8,0,157.401
2,easy,48,9,1,363.733
2,easy,48,10,1,195.141
2,easy,49,1,1,292.078
2,easy,49,2,0,120.017
2,easy,49,3,1,145.959
2,easy,49,4,1,101.976
2,easy,49,5,1,134.29
2,easy,49,6,1,181.33
2,easy,49,7,1,313.444
2,easy,49,8,0,206.268
2,easy,49,9,1,395.425
2,easy,49,10,1,146.927
2,easy,50,1,1,289.665
2,easy,50,2,0,117.901
2,easy,50,3,1,164.997
2,easy,50,4,1,104.1
2,easy,50,5,1,164.649
2,easy,50,6,1,185.019
2,easy,50,7,1,290.857
2,easy,50,8,0,188.842
2,easy,50,9,0,355.108
2,easy,50,10,1,159.439
2,easy,51,1,1,276.042
2,easy,51,2,0,128.382
2,easy,51,3,0,186.814
2,easy,51,4,0,152.378
2,easy,51,5,1,152.081
2,easy,51,6,0,209.799
2,easy,51,7,1,295.908
2,easy,51,8,0,182.211
2,easy,51,9,1,351.11
2,easy,51,10,0,183.011
2,easy,52,1,1,312.193
2,easy,52,2,0,146.667
2,easy,52,3,1,154.118
2,easy,52,4,1,126.268
2,easy,52,5,0,153.055
2,easy,52,6,0,157.114
2,easy,52,7,1,248.382
2,easy,52,8,1,185.632
2,easy,52,9,1,341.127
2,easy,52,10,1,152.509
2,easy,53,1,1,312.195
2,easy,53,2,0,139.433
2,easy,53,3,0,173.708
2,easy,53,4,1,120.35
2,easy,53,5,1,135.044
2,easy,53,6,1,170.629
2,easy,53,7,1,270.631
2,easy,53,8,0,160.619
2,easy,53,9,1,366.436
2,easy,53,10,0,214.331
2,easy,54,1,1,287.796
2,easy,54,2,1,108.374
2,easy,54,3,0,207.432
2,easy,54,4,0,124.684
2,easy,54,5,0,221.289
2,easy,54,6,1,159.073
2,easy,54,7,1,324.579
2,easy,54,8,0,184.034
2,easy,54,9,1,379.144
2,easy,54,10,1,194.515
2,easy,55,1,1,284.169
2,easy,55,2,0,126.734
2,easy,55,3,0,221.886
2,easy,55,4,0,146.45
2,easy,55,5,1,161.745
2,easy,55,6,1,185.246
2,easy,55,7,1,245.507
2,easy,55,8,1,166.87
2,easy,55,9,0,553.809
2,easy,55,10,0,224.518
2,easy,56,1,0,405.34
2,easy,56,2,0,136.696
2,easy,56,3,1,130.953
2,easy,56,4,1,125.076
2,easy,56,5,1,161.049
2,easy,56,6,1,159.055
2,easy,56,7,0,347.089
2,easy,56,8,0,177.422
2,easy,56,9,1,436.535
2,easy,56,10,0,169.975
2,easy,57,1,1,346.108
2,easy,57,2,0,128.067
2,easy,57,3,1,140.196
2,easy,57,4,0,128.19
2,easy,57,5,0,198.768
2,easy,57,6,1,189.945
2,easy,57,7,1,302.665
2,easy,57,8,0,198.124
2,easy,57,9,1,388.754
2,easy,57,10,1,160.286
2,easy,58,1,1,276.16
2,easy,58,2,0,133.791
2,easy,58,3,1,145.383
2,easy,58,4,0,125.426
2,easy,58,5,1,162.015
2,easy,58,6,0,241.54
2,easy,58,7,1,296.7
2,easy,58,8,0,179.959
2,easy,58,9,1,396.846
2,easy,58,10,0,212.81
2,easy,59,1,1,283.224
2,easy,59,2,0,133.87
2,easy,59,3,0,169.829
2,easy,59,4,0,116.087
2,easy,59,5,1,144.767
2,easy,59,6,0,207.677
2,easy,59,7,1,329.746
2,easy,59,8,0,211.407
2,easy,59,9,1,350.087
2,easy,59,10,0,211.95
2,easy,60,1,0,371.021
2,easy,60,2,0,134.827
2,easy,60,3,1,182.187
2,easy,60,4,1,99.414
2,easy,60,5,1,149.702
2,easy,60,6,0,194.914
2,easy,60,7,0,327.486
2,easy,60,8,0,178.255
2,easy,60,9,1,346.095
2,easy,60,10,0,180.194
2,easy,61,1,1,328.513
2,easy,61,2,0,122.291
2,easy,61,3,0,211.465
2,easy,61,4,1,114.3
2,easy,61,5,1,128.244
2,easy,61,6,1,177.08
2,easy,61,7,1,301.095
2,easy,61,8,0,170.159
2,easy,61,9,1,328.612
2,easy,61,10,1,148.513
2,easy,62,1,1,335.86
2,easy,62,2,0,148.876
2,easy,62,3,1,158.302
2,easy,62,4,0,146.347
2,easy,62,5,1,146.32
2,easy,62,6,0,218.688
2,easy,62,7,1,306.471
2,easy,62,8,0,178.987
2,easy,62,9,1,368.241
2,easy,62,10,1,171.284
2,easy,63,1,1,316.76
2,easy,63,2,1,125.938
2,easy,63,3,0,205.885
2,easy,63,4,1,115.957
2,easy,63,5,1,174.827
2,easy,63,6,1,176.573
2,easy,63,7,1,302.923
2,easy,63,8,0,177.997
2,easy,63,9,1,298.583
2,easy,63,10,1,169.335
2,easy,64,1,1,269.307
2,easy,64,2,0,129.289
2,easy,64,3,1,158.687
2,easy,64,4,1,120.178
2,easy,64,5,1,155.266
2,easy,64,6,0,201.686
2,easy,64,7,1,262.932
2,easy,64,8,0,172.681
2,easy,64,9,1,367.813
2,easy,64,10,1,137.441
2,easy,65,1,1,306.845
2,easy,65,2,0,119.211
2,easy,65,3,1,153.807
2,easy,65,4,0,140.577
2,easy,65,5,1,149.446
2,easy,65,6,1,178.527
2,easy,65,7,1,317.862
2,easy,65,8,0,187.256
2,easy,65,9,1,337.044
2,easy,65,10,1,151.698
2,easy,66,1,1,311.51
2,easy,66,2,0,126.61
2,easy,66,3,0,201.292
2,easy,66,4,1,125.519
2,easy,66,5,1,124.933
2,easy,66,6,0,204.759
2,easy,66,7,1,315.833
2,easy,66,8,0,206.889
2,easy,66,9,1,296.566
2,easy,66,10,0,194.593
2,easy,67,1,1,322.244
2,easy,67,2,0,145.323
2,easy,67,3,0,162.264
2,easy,67,4,1,102.465
2,easy,67,5,0,238.387
2,easy,67,6,0,204.06
2,easy,67,7,1,279.442
2,easy,67,8,0,201.55
2,easy,67,9,1,398.635
2,easy,67,10,0,181.982
2,easy,68,1,0,359.316
2,easy,68,2,1,98.985
2,easy,68,3,1,160.904
2,easy,68,4,1,96.642
2,easy,68,5,1,137.948
2,easy,68,6,0,204.844
2,easy,68,7,1,277.145
2,easy,68,8,0,179.347
2,easy,68,9,0,461.304
2,easy,68,10,1,174.241
2,easy,69,1,1,353.328
2,easy,69,2,0,148.167
2,easy,69,3,0,184.065
2,easy,69,4,1,121.3
2,easy,69,5,0,148.296
2,easy,69,6,0,218.447
2,easy,69,7,1,345.73
2,easy,69,8,0,211.37
2,easy,69,9,1,335.931
2,easy,69,10,0,228.029
2,easy,70,1,1,289.538
2,easy,70,2,1,125.827
2,easy,70,3,1,143.041
2,easy,70,4,0,121.625
2,easy,70,5,0,182.798
2,easy,70,6,0,227.865
2,easy,70,7,1,350.762
2,easy,70,8,0,184.841
2,easy,70,9,0,378.923
2,easy,70,10,1,180.685
2,easy,71,1,1,265.461
2,easy,71,2,0,156.62
2,easy,71,3,0,201.475
2,easy,71,4,1,121.598
2,easy,71,5,1,162.738
2,easy,71,6,0,173.944
2,easy,71,7,0,331.806
2,easy,71,8,1,156.003
2,easy,71,9,1,429.297
2,easy,71,10,1,145.991
2,easy,72,1,1,324.484
2,easy,72,2,0,120.494
2,easy,72,3,1,134.754
2,easy,72,4,0,145.155
2,easy,72,5,1,138.833
2,easy,72,6,0,218.56
2,easy,72,7,1,344.959
2,easy,72,8,1,156.11
2,easy,72,9,1,380.23
2,easy,72,10,0,183.24
2,easy,73,1,1,283.164
2,easy,73,2,1,115.858
2,easy,73,3,1,152.782
2,easy,73,4,0,149.01
2,easy,73,5,0,170.777
2,easy,73,6,0,198.046
2,easy,73,7,1,296.992
2,easy,73,8,0,199.164
2,easy,73,9,0,462.193
2,easy,73,10,0,233.94
2,easy,74,1,1,286.085
2,easy,74,2,0,104.923
2,easy,74,3,0,204.127
2,easy,74,4,1,117.725
2,easy,74,5,1,133.563
2,easy,74,6,0,172.69
2,easy,74,7,1,320.902
2,easy,74,8,0,164.089
2,easy,74,9,1,402.269
2,easy,74,10,0,219.882
2,easy,75,1,1,312.468
2,easy,75,2,0,124.17
2,easy,75,3,1,150.182
2,easy,75,4,0,128.165
2,easy,75,5,1,162.425
2,easy,75,6,1,168.518
2,easy,75,7,1,266.003
2,easy,75,8,0,177.185
2,easy,75,9,1,349.105
2,easy,75,10,0,175.952
2,easy,76,1,1,304.551
2,easy,76,2,1,110.914
2,easy,76,3,0,227.044
2,easy,76,4,1,118.512
2,easy,76,5,1,173.289
2,easy,76,6,0,221.994
2,easy,76,7,1,249.878
2,easy,76,8,0,196.704
2,easy,76,9,1,331.339
2,easy,76,10,1,166.459
2,easy,77,1,1,253.594
2,easy,77,2,0,116.597
2,easy,77,3,1,141.313
2,easy,77,4,1,98.443
2,easy,77,5,1,144.348
2,easy,77,6,1,163.374
2,easy,77,7,1,272.232
2,easy,77,8,0,191.427
2,easy,77,9,1,322.528
2,easy,77,10,1,152.438
2,easy,78,1,1,381.833
2,easy,78,2,0,103.897
2,easy,78,3,1,137.289
2,easy,78,4,1,113.319
2,easy,78,5,1,148.71
2,easy,78,6,1,172.174
2,easy,78,7,1,318.691
2,easy,78,8,0,186.293
2,easy,78,9,1,434.594
2,easy,78,10,1,147.342
2,easy,79,1,1,318.008
2,easy,79,2,0,131.021
2,easy,79,3,0,193.001
2,easy,79,4,1,108.547
2,easy,79,5,1,147.338
2,easy,79,6,0,228.218
2,easy,79,7,1,298.266
2,easy,79,8,0,207.269
2,easy,79,9,1,357.58
2,easy,79,10,1,174.994
2,easy,80,1,1,316.511
2,easy,80,2,0,103.206
2,easy,80,3,0,191.595
2,easy,80,4,1,102.967
2,easy,80,5,0,162.184
2,easy,80,6,0,222.452
2,easy,80,7,1,285.707
2,easy,80,8,0,175.439
2,easy,80,9,1,332.713
2,easy,80,10,1,177.751
2,easy,81,1,0,303.731
2,easy,81,2,0,149.216
2,easy,81,3,0,183.221
2,easy,81,4,1,121.963
2,easy,81,5,1,163.265
2,easy,81,6,1,161.062
2,easy,81,7,0,358.65
2,easy,81,8,0,186.942
2,easy,81,9,1,409.24
2,easy,81,10,1,155.064
2,easy,82,1,1,304.975
2,easy,82,2,0,120.993
2,easy,82,3,0,226.329
2,easy,82,4,1,98.151
2,easy,82,5,0,188.619
2,easy,82,6,0,266.652
2,easy,82,7,1,368.148
2,easy,82,8,0,203.49
2,easy,82,9,1,307.949
2,easy,82,10,1,140.811
2,easy,83,1,1,352.242
2,easy,83,2,0,130.196
2,easy,83,3,0,188.965
2,easy,83,4,0,134.132
2,easy,83,5,1,147.132
2,easy,83,6,0,203.729
2,easy,83,7,1,290.848
2,easy,83,8,0,210.069
2,easy,83,9,1,311.257
2,easy,83,10,1,159.124
2,easy,84,1,1,286.356
2,easy,84,2,0,134.744
2,easy,84,3,0,236.185
2,easy,84,4,0,147.258
2,easy,84,5,1,127.005
2,easy,84,6,0,198.843
2,easy,84,7,0,330.75
2,easy,84,8,0,166.495
2,easy,84,9,1,342.693
2,easy,84,10,0,173.019
2,easy,85,1,1,339.787
2,easy,85,2,0,119.791
2,easy,85,3,1,185.229
2,easy,85,4,0,169.883
2,easy,85,5,0,179.807
2,easy,85,6,0,253.999
2,easy,85,7,1,256.371
2,easy,85,8,0,199.751
2,easy,85,9,1,396.332
2,easy,85,10,1,174.475
2,easy,86,1,1,327.79
2,easy,86,2,0,118.785
2,easy,86,3,0,174.082
2,easy,86,4,0,152.906
2,easy,86,5,1,132.937
2,easy,86,6,0,197.509
2,easy,86,7,1,341.004
2,easy,86,8,0,154.89
2,easy,86,9,1,370.91
2,easy,86,10,0,184.316
2,easy,87,1,1,294.36
2,easy,87,2,0,131.076
2,easy,87,3,0,171.017
2,easy,87,4,1,124.24
2,easy,87,5,1,174.144
2,easy,87,6,0,204.943
2,easy,87,7,1,286.076
2,easy,87,8,0,229.538
2,easy,87,9,1,404.693
2,easy,87,10,0,171.244
2,easy,88,1,1,279.587
2,easy,88,2,0,125.1
2,easy,88,3,1,200.438
2,easy,88,4,1,96.421
2,easy,88,5,0,189.063
2,easy,88,6,0,198.962
2,easy,88,7,1,275.417
2,easy,88,8,1,200.142
2,easy,88,9,1,377.102
2,easy,88,10,1,178.847
2,easy,89,1,1,283.923
2,easy,89,2,0,116.642
2,easy,89,3,1,198.401
2,easy,89,4,1,129.744
2,easy,89,5,1,140.845
2,easy,89,6,0,216.281
2,easy,89,7,1,247.513
2,easy,89,8,0,170.598
2,easy,89,9,1,368.638
2,easy,89,10,1,158.716
2,easy,90,1,1,319.344
2,easy,90,2,0,142.545
2,easy,90,3,0,203.25
2,easy,90,4,0,139.926
2,easy,90,5,1,165.058
2,easy,90,6,0,258.822
2,easy,90,7,0,339.956
2,easy,90,8,0,213.323
2,easy,90,9,1,466.564
2,easy,90,10,1,156.113
2,easy,91,1,1,342.73
2,easy,91,2,1,135.305
2,easy,91,3,1,152.658
2,easy,91,4,0,180.14
2,easy,91,5,1,165.463
2,easy,91,6,0,197.662
2,easy,91,7,1,256.881
2,easy,91,8,0,164.066
2,easy,91,9,1,355.78
2,easy,91,10,1,171.62
2,easy,92,1,1,282.027
2,easy,92,2,0,118.174
2,easy,92,3,1,151.569
2,easy,92,4,0,137.898
2,easy,92,5,1,133.314
2,easy,92,6,0,182.863
2,easy,92,7,1,273.903
2,easy,92,8,0,204.679
2,easy,92,9,0,503.397
2,easy,92,10,0,210.416
2,easy,93,1,1,250.763
2,easy,93,2,0,115.454
2,easy,93,3,1,160.528
2,easy,93,4,1,130.809
2,easy,93,5,0,173.493
2,easy,93,6,0,196.361
2,easy,93,7,1,305.986
2,easy,93,8,0,209.568
2,easy,93,9,1,294.684
2,easy,93,10,1,162.6
2,easy,94,1,1,288.759
2,easy,94,2,0,116.668
2,easy,94,3,0,181.255
2,easy,94,4,1,127.528
2,easy,94,5,1,123.469
2,easy,94,6,0,198.645
2,easy,94,7,1,310.187
2,easy,94,8,0,158.918
2,easy,94,9,1,366.559
2,easy,94,10,0,208.297
2,easy,95,1,1,324.192
2,easy,95,2,0,136.783
2,easy,95,3,0,164.833
2,easy,95,4,0,116.089
2,easy,95,5,0,191.139
2,easy,95,6,0,196.909
2,easy,95,7,1,303.209
2,easy,95,8,0,172.557
2,easy,95,9,1,369.575
2,easy,95,10,1,155.894
2,easy,96,1,1,298.024
2,easy,96,2,1,140.013
2,easy,96,3,0,210.811
2,easy,96,4,1,100.845
2,easy,96,5,1,150.152
2,easy,96,6,1,158.772
2,easy,96,7,1,322.922
2,easy,96,8,0,204.783
2,easy,96,9,1,354.338
2,easy,96,10,1,201.711
2,easy,97,1,1,292.567
2,easy,97,2,0,125.326
2,easy,97,3,0,225.461
2,easy,97,4,1,106.772
2,easy,97,5,0,195.931
2,easy,97,6,0,189.153
2,easy,97,7,1,323.956
2,easy,97,8,0,200.997
2,easy,97,9,1,348.268
2,easy,97,10,1,145.27
2,easy,98,1,1,301.14
2,easy,98,2,0,147.054
2,easy,98,3,1,162.485
2,easy,98,4,1,123.464
2,easy,98,5,0,171.973
2,easy,98,6,0,234.066
2,easy,98,7,1,304.779
2,easy,98,8,0,181.785
2,easy,98,9,1,373.966
2,easy,98,10,1,215.859
2,easy,99,1,1,256.693
2,easy,99,2,0,134.634
2,easy,99,3,1,175.814
2,easy,99,4,1,119.825
2,easy,99,5,0,198.811
2,easy,99,6,0,198.446
2,easy,99,7,1,322.274
2,easy,99,8,0,186.535
2,easy,99,9,1,358.048
2,easy,99,10,1,140.453
2,easy,100,1,1,363.196
2,easy,100,2,0,145.529
2,easy,100,3,1,174.479
2,easy,100,4,1,116.112
2,easy,100,5,0,180.163
2,easy,100,6,1,140.494
2,easy,100,7,1,283.604
2,easy,100,8,0,185.316
2,easy,100,9,1,400.353
2,easy,100,10,0,200.974
2,easy,101,1,0,331.117
2,easy,101,2,0,141.868
2,easy,101,3,1,194.432
2,easy,101,4,1,109.951
2,easy,101,5,1,141.124
2,easy,101,6,0,182.152
2,easy,101,7,1,255.816
2,easy,101,8,0,179.7
2,easy,101,9,1,334.779
2,easy,101,10,1,157.916
2,easy,102,1,1,304.381
2,easy,102,2,0,129.913
2,easy,102,3,1,143.259
2,easy,102,4,0,124.422
2,easy,102,5,1,134.618
2,easy,102,6,1,172.536
2,easy,102,7,0,314.751
2,easy,102,8,0,181.62
2,easy,102,9,1,353.266
2,easy,102,10,1,134.349
2,easy,103,1,1,327.239
2,easy,103,2,0,145.539
2,easy,103,3,1,178.481
2,easy,103,4,1,115.903
2,easy,103,5,0,196.683
2,easy,103,6,0,185.857
2,easy,103,7,0,396.365
2,easy,103,8,0,208.885
2,easy,103,9,1,469.765
2,easy,103,10,1,171.398
2,easy,104,1,1,281.394
2,easy,104,2,0,114.946
2,easy,104,3,0,168.931
2,easy,104,4,1,110.321
2,easy,104,5,0,165.024
2,easy,104,6,1,198.145
2,easy,104,7,1,271.94
2,easy,104,8,0,166.959
2,easy,104,9,1,367.534
2,easy,104,10,1,163.843
2,easy,105,1,1,309.433
2,easy,105,2,0,106.788
2,easy,105,3,0,182.451
2,easy,105,4,0,149.076
2,easy,105,5,1,131.344
2,easy,105,6,0,194.261
2,easy,105,7,1,273.326
2,easy,105,8,0,159.205
2,easy,105,9,1,382.147
2,easy,105,10,1,141.733
2,easy,106,1,1,320.237
2,easy,106,2,1,96.796
2,easy,106,3,1,143.193
2,easy,106,4,1,107.048
2,easy,106,5,0,201.988
2,easy,106,6,0,183.701
2,easy,106,7,1,235.788
2,easy,106,8,0,181.347
2,easy,106,9,1,319.878
2,easy,106,10,1,168.505
2,easy,107,1,1,269.515
2,easy,107,2,0,116.154
2,easy,107,3,1,183.843
2,easy,107,4,0,141.597
2,easy,107,5,1,175.028
2,easy,107,6,0,194.884
2,easy,107,7,1,296.266
2,easy,107,8,0,169.655
2,easy,107,9,1,399.106
2,easy,107,10,0,207.509
2,easy,108,1,1,309.462
2,easy,108,2,0,148.782
2,easy,108,3,0,177.039
2,easy,108,4,1,108.834
2,easy,108,5,0,169.32
2,easy,108,6,0,185.163
2,easy,108,7,0,313.552
2,easy,108,8,0,176.465
2,easy,108,9,1,305.209
2,easy,108,10,1,151.441
2,easy,109,1,1,278.552
2,easy,109,2,1,106.886
2,easy,109,3,0,206.501
2,easy,109,4,1,101.335
2,easy,109,5,1,155.582
2,easy,109,6,1,167.887
2,easy,109,7,1,289.597
2,easy,109,8,0,202.27
2,easy,109,9,1,396.776
2,easy,109,10,1,152.74
2,easy,110,1,1,313
2,easy,110,2,1,105.044
2,easy,110,3,1,151.152
2,easy,110,4,0,147.826
2,easy,110,5,1,159.299
2,easy,110,6,0,219.458
2,easy,110,7,1,261.038
2,easy,110,8,0,187.34
2,easy,110,9,0,428.353
2,easy,110,10,1,131.188
2,easy,111,1,1,287.237
2,easy,111,2,0,110.043
2,easy,111,3,1,146.148
2,easy,111,4,0,131.995
2,easy,111,5,1,133.498
2,easy,111,6,0,202.801
2,easy,111,7,1,283.895
2,easy,111,8,0,172.118
2,easy,111,9,1,310.146
2,easy,111,10,0,215.094
2,easy,112,1,1,294.917
2,easy,112,2,0,129.743
2,easy,112,3,0,201.423
2,easy,112,4,0,141.762
2,easy,112,5,1,168.678
2,easy,112,6,0,213.29
2,easy,112,7,1,290.88
2,easy,112,8,1,158.253
2,easy,112,9,1,322.646
2,easy,112,10,1,211.882
2,easy,113,1,1,315.614
2,easy,113,2,0,130.268
2,easy,113,3,1,161.029
2,easy,113,4,0,134.236
2,easy,113,5,1,137.665
2,easy,113,6,0,205.335
2,easy,113,7,1,277.531
2,easy,113,8,0,158.333
2,easy,113,9,1,378.645
2,easy,113,10,0,170.74
2,easy,114,1,1,311.064
2,easy,114,2,0,125.005
2,easy,114,3,0,189.761
2,easy,114,4,1,100.343
2,easy,114,5,0,191.788
2,easy,114,6,0,177.228
2,easy,114,7,1,318.565
2,easy,114,8,0,197.09
2,easy,114,9,0,380.463
2,easy,114,10,0,185.962
2,easy,115,1,1,280.025
2,easy,115,2,0,119.687
2,easy,115,3,0,168.66
2,easy,115,4,1,105.355
2,easy,115,5,0,213.992
2,easy,115,6,0,219.343
2,easy,115,7,1,282.018
2,easy,115,8,0,222.471
2,easy,115,9,0,474.666
2,easy,115,10,0,192.562
2,easy,116,1,1,373.703
2,easy,116,2,0,129.215
2,easy,116,3,0,186.14
2,easy,116,4,1,113.768
2,easy,116,5,0,176.179
2,easy,116,6,0,197.096
2,easy,116,7,1,293.267
2,easy,116,8,0,180.216
2,easy,116,9,1,304.628
2,easy,116,10,1,164.318
2,easy,117,1,1,345.93
2,easy,117,2,0,130.468
2,easy,117,3,0,187.034
2,easy,117,4,0,155.546
2,easy,117,5,1,153.027
2,easy,117,6,0,194.544
2,easy,117,7,1,311.568
2,easy,117,8,0,172.382
2,easy,117,9,1,396.982
2,easy,117,10,0,190.163
2,easy,118,1,0,405.548
2,easy,118,2,0,118.61
2,easy,118,3,0,196.305
2,easy,118,4,1,110.674
2,easy,118,5,1,141.336
2,easy,118,6,1,161.468
2,easy,118,7,1,303.906
2,easy,118,8,0,181.672
2,easy,118,9,0,455.458
2,easy,118,10,1,162.429
2,easy,119,1,1,278.451
2,easy,119,2,0,139.292
2,easy,119,3,1,139.941
2,easy,119,4,0,135.728
2,easy,119,5,1,148.402
2,easy,119,6,0,186.21
2,easy,119,7,1,339.794
2,easy,119,8,0,218.52
2,easy,119,9,1,317.405
2,easy,119,10,1,196.262
2,easy,120,1,0,390.851
2,easy,120,2,0,130.177
2,easy,120,3,1,171.871
2,easy,120,4,1,110.314
2,easy,120,5,0,191.968
2,easy,120,6,0,235.457
2,easy,120,7,1,288.134
2,easy,120,8,0,176.402
2,easy,120,9,1,372.632
2,easy,120,10,0,230.711
2,hard,1,1,1,436.754
2,hard,1,2,1,156.816
2,hard,1,3,1,208.858
2,hard,1,4,0,192.713
2,hard,1,5,1,213.758
2,hard,1,6,0,278.353
2,hard,1,7,1,484.382
2,hard,1,8,0,269.66
2,hard,1,9,1,514.522
2,hard,1,10,1,187.754
2,hard,2,1,1,486.742
2,hard,2,2,0,185.788
2,hard,2,3,0,274.982
2,hard,2,4,1,144.038
2,hard,2,5,1,210.513
2,hard,2,6,0,270.922
2,hard,2,7,1,446.944
2,hard,2,8,1,207.965
2,hard,2,9,1,431.124
2,hard,2,10,1,227.236
2,hard,3,1,1,393.45
2,hard,3,2,1,116.841
2,hard,3,3,1,293.105
2,hard,3,4,1,125.85
2,hard,3,5,1,224.485
2,hard,3,6,0,287.141
2,hard,3,7,1,431.163
2,hard,3,8,0,216.345
2,hard,3,9,1,560.576
2,hard,3,10,1,180.735
2,hard,4,1,1,406.113
2,hard,4,2,0,216.177
2,hard,4,3,1,203.469
2,hard,4,4,1,134.456
2,hard,4,5,1,197.421
2,hard,4,6,0,275.697
2,hard,4,7,1,463.75
2,hard,4,8,0,250.834
2,hard,4,9,1,559.352
2,hard,4,10,0,292.818
2,hard,5,1,1,444.819
2,hard,5,2,1,164.541
2,hard,5,3,1,217.648
2,hard,5,4,0,223.38
2,hard,5,5,1,198.673
2,hard,5,6,1,226.188
2,hard,5,7,1,381.792
2,hard,5,8,0,247.741
2,hard,5,9,1,500.553
2,hard,5,10,0,251.556
2,hard,6,1,1,416.036
2,hard,6,2,0,167.954
2,hard,6,3,1,237.606
2,hard,6,4,1,163.06
2,hard,6,5,1,181.966
2,hard,6,6,0,277.537
2,hard,6,7,1,403.422
2,hard,6,8,0,240.557
2,hard,6,9,1,473.41
2,hard,6,10,1,204.461
2,hard,7,1,1,477.081
2,hard,7,2,1,154.397
2,hard,7,3,1,209.474
2,hard,7,4,1,146.886
2,hard,7,5,0,227.467
2,hard,7,6,0,269.619
2,hard,7,7,1,390.096
2,hard,7,8,0,273.986
2,hard,7,9,0,553.091
2,hard,7,10,1,229.688
2,hard,8,1,0,555.92
2,hard,8,2,0,187.104
2,hard,8,3,1,198.587
2,hard,8,4,1,150.431
2,hard,8,5,1,195.602
2,hard,8,6,1,225.959
2,hard,8,7,1,371.661
2,hard,8,8,0,240.886
2,hard,8,9,1,495.621
2,hard,8,10,0,255.792
2,hard,9,1,1,445.791
2,hard,9,2,0,198.192
2,hard,9,3,0,281.662
2,hard,9,4,1,158.604
2,hard,9,5,1,175.754
2,hard,9,6,1,246.296
2,hard,9,7,1,396.978
2,hard,9,8,0,213.756
2,hard,9,9,1,524.839
2,hard,9,10,1,176.221
2,hard,10,1,1,420.931
2,hard,10,2,0,184.698
2,hard,10,3,0,315.069
2,hard,10,4,0,186.678
2,hard,10,5,1,216.981
2,hard,10,6,0,305.509
2,hard,10,7,1,391.374
2,hard,10,8,0,274.029
2,hard,10,9,1,492.343
2,hard,10,10,1,217.206
2,hard,11,1,1,476.893
2,hard,11,2,0,194.35
2,hard,11,3,1,197.457
2,hard,11,4,0,179.962
2,hard,11,5,1,216.892
2,hard,11,6,1,250.505
2,hard,11,7,1,406.154
2,hard,11,8,1,187.311
2,hard,11,9,1,550.586
2,hard,11,10,1,241.937
2,hard,12,1,1,357.35
2,hard,12,2,1,133.024
2,hard,12,3,1,237.479
2,hard,12,4,0,209.066
2,hard,12,5,0,279.537
2,hard,12,6,1,226.795
2,hard,12,7,1,430.736
2,hard,12,8,0,286.699
2,hard,12,9,1,588.956
2,hard,12,10,1,198.762
2,hard,13,1,1,506.567
2,hard,13,2,0,149.203
2,hard,13,3,1,232.158
2,hard,13,4,0,212.25
2,hard,13,5,0,248.587
2,hard,13,6,0,333.553
2,hard,13,7,1,356.293
2,hard,13,8,0,246.324
2,hard,13,9,1,540.833
2,hard,13,10,1,238.036
2,hard,14,1,1,414.677
2,hard,14,2,1,125.234
2,hard,14,3,0,215.36
2,hard,14,4,1,167.675
2,hard,14,5,1,224.708
2,hard,14,6,0,259.607
2,hard,14,7,1,411.378
2,hard,14,8,0,238.602
2,hard,14,9,1,433.644
2,hard,14,10,1,228.512
2,hard,15,1,1,467.67
2,hard,15,2,1,167.856
2,hard,15,3,1,202.202
2,hard,15,4,0,178.688
2,hard,15,5,1,223.257
2,hard,15,6,1,261.262
2,hard,15,7,1,463.943
2,hard,15,8,0,259.641
2,hard,15,9,1,450.051
2,hard,15,10,0,248.909
2,hard,16,1,1,521.57
2,hard,16,2,1,145.466
2,hard,16,3,0,233.148
2,hard,16,4,1,165.31
2,hard,16,5,1,248.251
2,hard,16,6,1,199.249
2,hard,16,7,1,359.891
2,hard,16,8,0,207.582
2,hard,16,9,1,512.975
2,hard,16,10,1,239.056
2,hard,17,1,1,383.049
2,hard,17,2,1,158.078
2,hard,17,3,0,241.09
2,hard,17,4,0,164.661
2,hard,17,5,1,229.511
2,hard,17,6,1,215.685
2,hard,17,7,1,370.575
2,hard,17,8,0,227.269
2,hard,17,9,1,543.122
2,hard,17,10,1,215.3
2,hard,18,1,1,450.075
2,hard,18,2,1,160.629
2,hard,18,3,1,217.283
2,hard,18,4,1,159.368
2,hard,18,5,1,171.49
2,hard,18,6,0,323.485
2,hard,18,7,1,352.78
2,hard,18,8,0,265.577
2,hard,18,9,1,471.979
2,hard,18,10,0,242.942
2,hard,19,1,1,416.618
2,hard,19,2,0,192.733
2,hard,19,3,1,209.28
2,hard,19,4,1,167.293
2,hard,19,5,1,241.797
2,hard,19,6,0,290.33
2,hard,19,7,1,471.223
2,hard,19,8,0,285.448
2,hard,19,9,1,565.265
2,hard,19,10,1,208.541
2,hard,20,1,1,420.621
2,hard,20,2,1,166.342
2,hard,20,3,1,222.137
2,hard,20,4,0,193.402
2,hard,20,5,1,206.319
2,hard,20,6,1,225.333
2,hard,20,7,1,452.194
2,hard,20,8,0,285.376
2,hard,20,9,1,492.153
2,hard,20,10,0,261.411
2,hard,21,1,1,338.556
2,hard,21,2,0,163.359
2,hard,21,3,1,250.399
2,hard,21,4,1,150.683
2,hard,21,5,1,169.505
2,hard,21,6,0,382.149
2,hard,21,7,0,461.894
2,hard,21,8,0,295.239
2,hard,21,9,1,463.621
2,hard,21,10,0,205.527
2,hard,22,1,1,401.588
2,hard,22,2,1,155.835
2,hard,22,3,0,263.135
2,hard,22,4,0,203.605
2,hard,22,5,1,196.492
2,hard,22,6,1,213.736
2,hard,22,7,1,424.935
2,hard,22,8,0,253.287
2,hard,22,9,1,455.663
2,hard,22,10,1,230.469
2,hard,23,1,1,409.615
2,hard,23,2,0,173.983
2,hard,23,3,1,216.643
2,hard,23,4,0,182.803
2,hard,23,5,1,219.08
2,hard,23,6,0,301.78
2,hard,23,7,1,415.352
2,hard,23,8,0,244.192
2,hard,23,9,1,542.086
2,hard,23,10,1,247.954
2,hard,24,1,1,408.809
2,hard,24,2,0,163.976
2,hard,24,3,0,257.845
2,hard,24,4,0,208.584
2,hard,24,5,0,240.052
2,hard,24,6,1,230.171
2,hard,24,7,0,547.646
2,hard,24,8,0,241.815
2,hard,24,9,1,433.187
2,hard,24,10,1,206.915
2,hard,25,1,1,487.702
2,hard,25,2,1,151.038
2,hard,25,3,1,244.285
2,hard,25,4,1,139.627
2,hard,25,5,1,215.762
2,hard,25,6,1,228.187
2,hard,25,7,1,383.54
2,hard,25,8,0,274.568
2,hard,25,9,1,586.171
2,hard,25,10,1,200.161
2,hard,26,1,1,445.465
2,hard,26,2,0,169.571
2,hard,26,3,0,270.406
2,hard,26,4,1,155.696
2,hard,26,5,0,254.585
2,hard,26,6,0,302.057
2,hard,26,7,1,372.965
2,hard,26,8,1,223.895
2,hard,26,9,1,477.957
2,hard,26,10,1,194.044
2,hard,27,1,1,413.323
2,hard,27,2,0,188.69
2,hard,27,3,1,221.236
2,hard,27,4,0,172.758
2,hard,27,5,1,213.415
2,hard,27,6,0,268.247
2,hard,27,7,1,402.906
2,hard,27,8,0,251.074
2,hard,27,9,1,493.94
2,hard,27,10,1,207.148
2,hard,28,1,1,430.551
2,hard,28,2,1,144.847
2,hard,28,3,1,203.777
2,hard,28,4,1,156.31
2,hard,28,5,1,188.793
2,hard,28,6,0,234.812
2,hard,28,7,1,365.916
2,hard,28,8,0,245.882
2,hard,28,9,1,459.206
2,hard,28,10,1,238.029
2,hard,29,1,1,385.373
2,hard,29,2,0,156.432
2,hard,29,3,0,246.36
2,hard,29,4,1,179.161
2,hard,29,5,1,197.597
2,hard,29,6,0,256.276
2,hard,29,7,1,346.694
2,hard,29,8,0,267.828
2,hard,29,9,1,611.148
2,hard,29,10,0,261.832
2,hard,30,1,0,426.343
2,hard,30,2,0,179.425
2,hard,30,3,0,313.736
2,hard,30,4,1,160.621
2,hard,30,5,1,191.014
2,hard,30,6,0,319.023
2,hard,30,7,1,385.05
2,hard,30,8,0,223.752
2,hard,30,9,1,493.721
2,hard,30,10,1,210.442
2,hard,31,1,1,369
2,hard,31,2,0,179.942
2,hard,31,3,1,239.943
2,hard,31,4,0,173.367
2,hard,31,5,1,187.582
2,hard,31,6,0,274.733
2,hard,31,7,1,362.316
2,hard,31,8,0,200.849
2,hard,31,9,1,491.15
2,hard,31,10,1,186.653
2,hard,32,1,1,418.082
2,hard,32,2,1,125.004
2,hard,32,3,1,192.279
2,hard,32,4,1,137.87
2,hard,32,5,1,192.664
2,hard,32,6,0,267.51
2,hard,32,7,1,376.158
2,hard,32,8,0,240.078
2,hard,32,9,1,435.688
2,hard,32,10,0,274.343
2,hard,33,1,1,403.077
2,hard,33,2,0,153.05
2,hard,33,3,1,192.844
2,hard,33,4,1,152.101
2,hard,33,5,0,225.256
2,hard,33,6,0,321.607
2,hard,33,7,1,386.847
2,hard,33,8,0,251.561
2,hard,33,9,1,534.67
2,hard,33,10,0,342.233
2,hard,34,1,0,555.03
2,hard,34,2,0,178.14
2,hard,34,3,1,228.552
2,hard,34,4,0,211.899
2,hard,34,5,1,200.439
2,hard,34,6,1,200.727
2,hard,34,7,1,397.821
2,hard,34,8,0,270.206
2,hard,34,9,1,473.214
2,hard,34,10,1,204.981
2,hard,35,1,1,434.225
2,hard,35,2,1,143.329
2,hard,35,3,1,204.133
2,hard,35,4,1,146.03
2,hard,35,5,0,239.487
2,hard,35,6,0,338.619
2,hard,35,7,1,321.19
2,hard,35,8,1,213.825
2,hard,35,9,0,588.263
2,hard,35,10,0,254.743
2,hard,36,1,1,437.813
2,hard,36,2,0,161.047
2,hard,36,3,1,245.465
2,hard,36,4,1,134.673
2,hard,36,5,1,221.599
2,hard,36,6,1,209.959
2,hard,36,7,1,420.181
2,hard,36,8,0,241.709
2,hard,36,9,1,566.334
2,hard,36,10,1,237.412
2,hard,37,1,1,426.14
2,hard,37,2,1,163.788
2,hard,37,3,1,237.308
2,hard,37,4,0,202.539
2,hard,37,5,0,236.392
2,hard,37,6,1,214.245
2,hard,37,7,1,424.053
2,hard,37,8,1,263.451
2,hard,37,9,1,426.236
2,hard,37,10,1,228.789
2,hard,38,1,1,428.47
2,hard,38,2,0,175.376
2,hard,38,3,1,177.174
2,hard,38,4,1,141.955
2,hard,38,5,1,190.034
2,hard,38,6,0,300.603
2,hard,38,7,1,365.7
2,hard,38,8,0,222.332
2,hard,38,9,1,449.404
2,hard,38,10,1,220.946
2,hard,39,1,1,371.576
2,hard,39,2,0,180.233
2,hard,39,3,1,208.817
2,hard,39,4,1,188.618
2,hard,39,5,0,231.815
2,hard,39,6,0,287.055
2,hard,39,7,1,456.22
2,hard,39,8,0,238.508
2,hard,39,9,1,469.076
2,hard,39,10,0,250.54
2,hard,40,1,1,446.55
2,hard,40,2,0,194.886
2,hard,40,3,1,226.956
2,hard,40,4,1,145.325
2,hard,40,5,1,189.432
2,hard,40,6,0,252.95
2,hard,40,7,1,346.197
2,hard,40,8,0,289.371
2,hard,40,9,1,457.427
2,hard,40,10,0,242.861
2,hard,41,1,1,453.603
2,hard,41,2,0,173.053
2,hard,41,3,1,235.4
2,hard,41,4,1,150.783
2,hard,41,5,0,203.547
2,hard,41,6,0,263.099
2,hard,41,7,1,402.611
2,hard,41,8,0,190.71
2,hard,41,9,1,432.055
2,hard,41,10,0,274.901
2,hard,42,1,1,498.8
2,hard,42,2,1,143.332
2,hard,42,3,0,271.145
2,hard,42,4,1,156.534
2,hard,42,5,0,229.242
2,hard,42,6,0,291.314
2,hard,42,7,1,327.969
2,hard,42,8,1,214.442
2,hard,42,9,1,489.293
2,hard,42,10,0,276.014
2,hard,43,1,1,424.092
2,hard,43,2,1,138.654
2,hard,43,3,0,272.478
2,hard,43,4,1,162.226
2,hard,43,5,1,166.318
2,hard,43,6,0,287.817
2,hard,43,7,1,398.876
2,hard,43,8,0,277.768
2,hard,43,9,0,670.096
2,hard,43,10,1,238.793
2,hard,44,1,0,486.301
2,hard,44,2,0,171.593
2,hard,44,3,0,301.107
2,hard,44,4,1,155.044
2,hard,44,5,1,217.271
2,hard,44,6,0,238.967
2,hard,44,7,1,343.971
2,hard,44,8,0,250.864
2,hard,44,9,1,463.859
2,hard,44,10,1,196.548
2,hard,45,1,1,375.603
2,hard,45,2,0,191.177
2,hard,45,3,0,267.886
2,hard,45,4,1,139.691
2,hard,45,5,1,189.631
2,hard,45,6,0,253.101
2,hard,45,7,1,383.543
2,hard,45,8,1,234.603
2,hard,45,9,1,554.379
2,hard,45,10,1,206.005
2,hard,46,1,1,431.617
2,hard,46,2,0,167.718
2,hard,46,3,0,272.853
2,hard,46,4,0,215.974
2,hard,46,5,1,220.125
2,hard,46,6,0,231.136
2,hard,46,7,1,474.963
2,hard,46,8,0,257.186
2,hard,46,9,1,462.362
2,hard,46,10,1,280.18
2,hard,47,1,1,441.924
2,hard,47,2,1,141.722
2,hard,47,3,0,263.559
2,hard,47,4,1,142.953
2,hard,47,5,1,222.415
2,hard,47,6,1,196.948
2,hard,47,7,1,454.906
2,hard,47,8,0,236.385
2,hard,47,9,0,614.073
2,hard,47,10,0,269.075
2,hard,48,1,1,441.386
2,hard,48,2,0,207.76
2,hard,48,3,1,225.679
2,hard,48,4,0,204.649
2,hard,48,5,0,238.55
2,hard,48,6,0,338.324
2,hard,48,7,1,380.465
2,hard,48,8,0,281.416
2,hard,48,9,1,536.853
2,hard,48,10,1,241.04
2,hard,49,1,1,400.779
2,hard,49,2,0,192.666
2,hard,49,3,1,195.358
2,hard,49,4,1,165.51
2,hard,49,5,0,248.24
2,hard,49,6,1,172.773
2,hard,49,7,1,344.072
2,hard,49,8,0,275.401
2,hard,49,9,1,417.838
2,hard,49,10,1,208.677
2,hard,50,1,1,409.413
2,hard,50,2,0,170.122
2,hard,50,3,0,257.329
2,hard,50,4,0,216.735
2,hard,50,5,1,268.718
2,hard,50,6,1,216.386
2,hard,50,7,0,455.807
2,hard,50,8,0,242.596
2,hard,50,9,1,469.757
2,hard,50,10,0,250.452
2,hard,51,1,1,435.046
2,hard,51,2,1,132.891
2,hard,51,3,1,170.695
2,hard,51,4,1,151.267
2,hard,51,5,1,201.986
2,hard,51,6,0,291.194
2,hard,51,7,1,449.837
2,hard,51,8,1,202.703
2,hard,51,9,1,445.036
2,hard,51,10,1,226.788
2,hard,52,1,1,393.132
2,hard,52,2,0,171.636
2,hard,52,3,1,196.085
2,hard,52,4,1,163.932
2,hard,52,5,1,198.754
2,hard,52,6,0,271.323
2,hard,52,7,1,399.845
2,hard,52,8,0,279.148
2,hard,52,9,1,618.797
2,hard,52,10,1,261.746
2,hard,53,1,1,412.483
2,hard,53,2,0,179.654
2,hard,53,3,1,199.141
2,hard,53,4,1,162.895
2,hard,53,5,1,210.342
2,hard,53,6,0,293.686
2,hard,53,7,1,347.769
2,hard,53,8,1,209.321
2,hard,53,9,1,468.933
2,hard,53,10,1,234.252
2,hard,54,1,1,406.513
2,hard,54,2,0,182.148
2,hard,54,3,0,254.007
2,hard,54,4,1,173.745
2,hard,54,5,1,186.311
2,hard,54,6,1,251.07
2,hard,54,7,1,410.591
2,hard,54,8,0,250.162
2,hard,54,9,1,470.11
2,hard,54,10,1,193.81
2,hard,55,1,1,433.877
2,hard,55,2,1,148.293
2,hard,55,3,1,209.012
2,hard,55,4,1,165.212
2,hard,55,5,1,207.015
2,hard,55,6,0,277.951
2,hard,55,7,1,317.967
2,hard,55,8,0,230.904
2,hard,55,9,1,543.345
2,hard,55,10,1,201.956
2,hard,56,1,1,418.632
2,hard,56,2,0,205.348
2,hard,56,3,1,186.141
2,hard,56,4,1,169.434
2,hard,56,5,1,247.179
2,hard,56,6,1,243.093
2,hard,56,7,0,402.334
2,hard,56,8,0,232.222
2,hard,56,9,1,435.587
2,hard,56,10,0,243.969
2,hard,57,1,1,454.639
2,hard,57,2,1,127.975
2,hard,57,3,0,303.535
2,hard,57,4,0,187.22
2,hard,57,5,1,211.751
2,hard,57,6,0,270.71
2,hard,57,7,1,401.879
2,hard,57,8,0,219.309
2,hard,57,9,1,613.999
2,hard,57,10,1,243.652
2,hard,58,1,1,457.306
2,hard,58,2,0,191.01
2,hard,58,3,1,227.138
2,hard,58,4,0,179.746
2,hard,58,5,1,206.008
2,hard,58,6,1,205.538
2,hard,58,7,1,435.38
2,hard,58,8,0,285.33
2,hard,58,9,1,540.369
2,hard,58,10,1,225.237
2,hard,59,1,1,441.555
2,hard,59,2,0,144.647
2,hard,59,3,1,205.677
2,hard,59,4,0,172.35
2,hard,59,5,0,225.662
2,hard,59,6,0,256.789
2,hard,59,7,1,405.353
2,hard,59,8,0,261.16
2,hard,59,9,1,569.655
2,hard,59,10,1,180.896
2,hard,60,1,1,465.272
2,hard,60,2,0,210.24
2,hard,60,3,1,228.877
2,hard,60,4,1,153.352
2,hard,60,5,1,207.515
2,hard,60,6,0,314.399
2,hard,60,7,1,377.969
2,hard,60,8,0,229.178
2,hard,60,9,1,442.469
2,hard,60,10,1,194.828
2,hard,61,1,1,371.592
2,hard,61,2,0,165.64
2,hard,61,3,1,199.709
2,hard,61,4,1,149.439
2,hard,61,5,1,197.021
2,hard,61,6,0,253.354
2,hard,61,7,0,554.364
2,hard,61,8,0,252.131
2,hard,61,9,1,527.43
2,hard,61,10,0,281.287
2,hard,62,1,1,465.003
2,hard,62,2,0,173.281
2,hard,62,3,0,303.415
2,hard,62,4,1,166.874
2,hard,62,5,1,200.669
2,hard,62,6,0,302.522
2,hard,62,7,1,414.63
2,hard,62,8,0,227.774
2,hard,62,9,0,668.52
2,hard,62,10,1,253.589
2,hard,63,1,1,458.109
2,hard,63,2,0,181.992
2,hard,63,3,0,291.922
2,hard,63,4,1,133.628
2,hard,63,5,0,224.703
2,hard,63,6,0,275.771
2,hard,63,7,1,400.143
2,hard,63,8,0,240.106
2,hard,63,9,1,524.638
2,hard,63,10,1,239.337
2,hard,64,1,1,428.108
2,hard,64,2,1,169.098
2,hard,64,3,0,238.705
2,hard,64,4,1,145.392
2,hard,64,5,1,213.65
2,hard,64,6,1,200.633
2,hard,64,7,1,364.432
2,hard,64,8,0,214.506
2,hard,64,9,1,452.04
2,hard,64,10,1,204.942
2,hard,65,1,1,528.205
2,hard,65,2,1,147.256
2,hard,65,3,0,242.901
2,hard,65,4,1,158.756
2,hard,65,5,1,193.493
2,hard,65,6,0,258.546
2,hard,65,7,1,420.176
2,hard,65,8,1,198.366
2,hard,65,9,1,461.392
2,hard,65,10,0,259.309
2,hard,66,1,1,459.866
2,hard,66,2,1,154.548
2,hard,66,3,1,212.266
2,hard,66,4,1,173.572
2,hard,66,5,1,212.149
2,hard,66,6,1,228.811
2,hard,66,7,1,460.588
2,hard,66,8,0,281.223
2,hard,66,9,1,528.839
2,hard,66,10,0,231.865
2,hard,67,1,1,355.138
2,hard,67,2,1,114.276
2,hard,67,3,1,221.875
2,hard,67,4,1,146.422
2,hard,67,5,1,174.956
2,hard,67,6,0,307.91
2,hard,67,7,1,445.395
2,hard,67,8,0,227.566
2,hard,67,9,1,493.283
2,hard,67,10,1,217.09
2,hard,68,1,1,418.017
2,hard,68,2,0,202.262
2,hard,68,3,0,291.367
2,hard,68,4,1,138.475
2,hard,68,5,1,201.469
2,hard,68,6,0,257.191
2,hard,68,7,0,569.748
2,hard,68,8,0,274.695
2,hard,68,9,0,642.602
2,hard,68,10,0,324.442
2,hard,69,1,1,458.811
2,hard,69,2,0,186.528
2,hard,69,3,1,210.884
2,hard,69,4,0,201.271
2,hard,69,5,1,186.231
2,hard,69,6,0,308.695
2,hard,69,7,1,387.704
2,hard,69,8,0,233.034
2,hard,69,9,1,629.708
2,hard,69,10,0,269.719
2,hard,70,1,1,371.23
2,hard,70,2,1,145.033
2,hard,70,3,1,219.099
2,hard,70,4,1,162.917
2,hard,70,5,1,194.292
2,hard,70,6,1,234.183
2,hard,70,7,1,413.938
2,hard,70,8,1,200.76
2,hard,70,9,1,478.909
2,hard,70,10,1,210.757
2,hard,71,1,1,435.076
2,hard,71,2,0,176.997
2,hard,71,3,1,217.514
2,hard,71,4,1,136.506
2,hard,71,5,1,212.761
2,hard,71,6,0,249.413
2,hard,71,7,1,411.548
2,hard,71,8,1,185.227
2,hard,71,9,1,492.906
2,hard,71,10,1,222.104
2,hard,72,1,1,397.023
2,hard,72,2,0,171.858
2,hard,72,3,0,285.07
2,hard,72,4,1,138.086
2,hard,72,5,1,207.078
2,hard,72,6,0,289.832
2,hard,72,7,0,516.918
2,hard,72,8,0,306.345
2,hard,72,9,1,523.325
2,hard,72,10,1,195.213
2,hard,73,1,1,381.813
2,hard,73,2,0,166.598
2,hard,73,3,1,216.075
2,hard,73,4,1,143.096
2,hard,73,5,1,202.574
2,hard,73,6,1,225.182
2,hard,73,7,1,445.461
2,hard,73,8,1,175.338
2,hard,73,9,1,478.479
2,hard,73,10,1,215.822
2,hard,74,1,1,447.777
2,hard,74,2,1,139.77
2,hard,74,3,0,238.781
2,hard,74,4,1,144.335
2,hard,74,5,1,244.517
2,hard,74,6,0,271.524
2,hard,74,7,1,408.038
2,hard,74,8,0,259.565
2,hard,74,9,1,536.092
2,hard,74,10,1,206.628
2,hard,75,1,1,389.139
2,hard,75,2,1,167.982
2,hard,75,3,1,231.333
2,hard,75,4,1,158.89
2,hard,75,5,1,203.777
2,hard,75,6,1,239.231
2,hard,75,7,1,361.275
2,hard,75,8,0,280.602
2,hard,75,9,1,468.581
2,hard,75,10,1,196.648
2,hard,76,1,1,469.179
2,hard,76,2,0,171.747
2,hard,76,3,0,296.407
2,hard,76,4,1,166.474
2,hard,76,5,0,294.439
2,hard,76,6,0,263.83
2,hard,76,7,1,413.459
2,hard,76,8,0,251.655
2,hard,76,9,1,480.149
2,hard,76,10,0,290.267
2,hard,77,1,1,454.926
2,hard,77,2,0,177.183
2,hard,77,3,1,219.432
2,hard,77,4,1,172.834
2,hard,77,5,1,189.263
2,hard,77,6,1,204.268
2,hard,77,7,0,627.243
2,hard,77,8,0,240.694
2,hard,77,9,1,485.746
2,hard,77,10,0,266.878
2,hard,78,1,1,440.018
2,hard,78,2,0,166.663
2,hard,78,3,1,238.286
2,hard,78,4,1,156.162
2,hard,78,5,1,208.374
2,hard,78,6,1,188.539
2,hard,78,7,0,511.977
2,hard,78,8,0,263.966
2,hard,78,9,1,457.639
2,hard,78,10,1,236.519
2,hard,79,1,1,471.897
2,hard,79,2,1,129.549
2,hard,79,3,1,262.818
2,hard,79,4,1,151.202
2,hard,79,5,1,205.888
2,hard,79,6,0,293.94
2,hard,79,7,1,323.764
2,hard,79,8,0,290.143
2,hard,79,9,1,476.446
2,hard,79,10,0,279.123
2,hard,80,1,1,415.282
2,hard,80,2,0,180.058
2,hard,80,3,1,221.47
2,hard,80,4,0,161.032
2,hard,80,5,0,250.065
2,hard,80,6,0,307.024
2,hard,80,7,1,435.518
2,hard,80,8,0,250.578
2,hard,80,9,1,518.565
2,hard,80,10,1,205.546
2,hard,81,1,1,456.454
2,hard,81,2,1,165.631
2,hard,81,3,1,190.692
2,hard,81,4,1,148.643
2,hard,81,5,1,205.229
2,hard,81,6,0,314.909
2,hard,81,7,0,489.118
2,hard,81,8,0,251.999
2,hard,81,9,1,589.499
2,hard,81,10,0,240.998
2,hard,82,1,1,453.89
2,hard,82,2,0,213.609
2,hard,82,3,1,222.343
2,hard,82,4,0,198.788
2,hard,82,5,1,188.968
2,hard,82,6,0,313.961
2,hard,82,7,0,638.519
2,hard,82,8,0,257.501
2,hard,82,9,0,598.855
2,hard,82,10,1,274.855
2,hard,83,1,1,435.884
2,hard,83,2,0,191.294
2,hard,83,3,1,230.235
2,hard,83,4,1,158.179
2,hard,83,5,0,259.881
2,hard,83,6,0,259.392
2,hard,83,7,1,472.219
2,hard,83,8,0,247.945
2,hard,83,9,1,536.594
2,hard,83,10,0,294.123
2,hard,84,1,1,386.422
2,hard,84,2,0,180.073
2,hard,84,3,1,202.086
2,hard,84,4,1,178.653
2,hard,84,5,1,211.791
2,hard,84,6,0,261.955
2,hard,84,7,1,443.462
2,hard,84,8,0,217.012
2,hard,84,9,1,413.329
2,hard,84,10,1,225.394
2,hard,85,1,1,468.868
2,hard,85,2,0,172.267
2,hard,85,3,1,215.183
2,hard,85,4,0,179.362
2,hard,85,5,1,214.228
2,hard,85,6,1,220.268
2,hard,85,7,1,441.979
2,hard,85,8,0,246.097
2,hard,85,9,1,457.188
2,hard,85,10,1,217.311
2,hard,86,1,1,439.759
2,hard,86,2,0,172.131
2,hard,86,3,1,228.49
2,hard,86,4,1,147.975
2,hard,86,5,0,211.284
2,hard,86,6,0,244.454
2,hard,86,7,1,339.099
2,hard,86,8,0,245.089
2,hard,86,9,1,506.619
2,hard,86,10,1,203.923
2,hard,87,1,1,537.983
2,hard,87,2,0,163.568
2,hard,87,3,1,216.727
2,hard,87,4,0,201.065
2,hard,87,5,1,191.135
2,hard,87,6,0,283.133
2,hard,87,7,1,361.834
2,hard,87,8,0,246.88
2,hard,87,9,1,495.267
2,hard,87,10,1,257.616
2,hard,88,1,1,400.154
2,hard,88,2,0,150.26
2,hard,88,3,0,224.746
2,hard,88,4,0,193.503
2,hard,88,5,1,230.629
2,hard,88,6,0,247.614
2,hard,88,7,1,363.313
2,hard,88,8,0,287.886
2,hard,88,9,1,558.536
2,hard,88,10,1,197.407
2,hard,89,1,1,454.477
2,hard,89,2,0,186.709
2,hard,89,3,0,229.009
2,hard,89,4,1,141.942
2,hard,89,5,1,208.218
2,hard,89,6,0,296.612
2,hard,89,7,1,415.913
2,hard,89,8,0,219.379
2,hard,89,9,0,508.959
2,hard,89,10,0,239.267
2,hard,90,1,1,429.749
2,hard,90,2,0,168.562
2,hard,90,3,0,224.9
2,hard,90,4,1,146.342
2,hard,90,5,1,191.739
2,hard,90,6,0,294.713
2,hard,90,7,0,547.807
2,hard,90,8,1,183.404
2,hard,90,9,1,460.684
2,hard,90,10,1,231.602
2,hard,91,1,1,389.635
2,hard,91,2,1,149.206
2,hard,91,3,1,199.569
2,hard,91,4,1,173.269
2,hard,91,5,0,269.591
2,hard,91,6,0,277.709
2,hard,91,7,1,365.474
2,hard,91,8,1,207.057
2,hard,91,9,1,506.486
2,hard,91,10,1,203.969
2,hard,92,1,1,395.963
2,hard,92,2,0,202.11
2,hard,92,3,1,209.633
2,hard,92,4,1,158.677
2,hard,92,5,1,202.292
2,hard,92,6,1,244.599
2,hard,92,7,1,384.778
2,hard,92,8,1,260.005
2,hard,92,9,0,602.38
2,hard,92,10,0,252.246
2,hard,93,1,0,511.94
2,hard,93,2,0,221.372
2,hard,93,3,1,233.821
2,hard,93,4,1,163.087
2,hard,93,5,1,198.82
2,hard,93,6,1,241.403
2,hard,93,7,1,385.949
2,hard,93,8,0,239.944
2,hard,93,9,1,523.161
2,hard,93,10,1,215.525
2,hard,94,1,1,434.743
2,hard,94,2,1,144.243
2,hard,94,3,0,233.237
