size,condition,trial,subject,correct,RT
1,easy,1,1,1,569.944
1,easy,1,2,0,243.621
1,easy,1,3,1,282.78
1,easy,1,4,0,255.043
1,easy,1,5,1,275.693
1,easy,1,6,0,370.982
1,easy,1,7,1,584.253
1,easy,1,8,0,346.962
1,easy,1,9,1,670.034
1,easy,1,10,1,269.798
1,easy,2,1,1,601.677
1,easy,2,2,0,239.939
1,easy,2,3,1,293.593
1,easy,2,4,0,243.683
1,easy,2,5,0,334.167
1,easy,2,6,1,299.653
1,easy,2,7,0,685.476
1,easy,2,8,0,336.743
1,easy,2,9,1,613.333
1,easy,2,10,0,362.528
1,easy,3,1,1,540.951
1,easy,3,2,0,210.289
1,easy,3,3,1,334.992
1,easy,3,4,1,186.49
1,easy,3,5,1,282.526
1,easy,3,6,0,376.793
1,easy,3,7,1,551.223
1,easy,3,8,0,310.776
1,easy,3,9,1,699.378
1,easy,3,10,1,264.707
1,easy,4,1,1,549.588
1,easy,4,2,0,258.819
1,easy,4,3,0,340.903
1,easy,4,4,1,192.761
1,easy,4,5,0,323.609
1,easy,4,6,1,302.282
1,easy,4,7,1,571.674
1,easy,4,8,0,334.632
1,easy,4,9,1,698.615
1,easy,4,10,0,372.368
1,easy,5,1,0,702.529
1,easy,5,2,0,249.55
1,easy,5,3,0,352.581
1,easy,5,4,1,224.813
1,easy,5,5,0,324.633
1,easy,5,6,0,369.589
1,easy,5,7,1,518.704
1,easy,5,8,0,332.562
1,easy,5,9,1,660.876
1,easy,5,10,1,282.574
1,easy,6,1,1,556.261
1,easy,6,2,0,228.132
1,easy,6,3,0,368.392
1,easy,6,4,1,212.277
1,easy,6,5,0,310.684
1,easy,6,6,0,370.438
1,easy,6,7,1,533.195
1,easy,6,8,0,327.705
1,easy,6,9,1,642.708
1,easy,6,10,0,343.881
1,easy,7,1,1,595.676
1,easy,7,2,0,241.735
1,easy,7,3,1,283.196
1,easy,7,4,1,201.474
1,easy,7,5,1,257.332
1,easy,7,6,1,298.931
1,easy,7,7,1,524.315
1,easy,7,8,0,349.734
1,easy,7,9,1,628.585
1,easy,7,10,0,364.479
1,easy,8,1,1,581.822
1,easy,8,2,0,240.787
1,easy,8,3,1,275.739
1,easy,8,4,0,249.033
1,easy,8,5,1,263.725
1,easy,8,6,0,369.402
1,easy,8,7,1,511.777
1,easy,8,8,0,327.929
1,easy,8,9,1,657.612
1,easy,8,10,0,348.03
1,easy,9,1,1,575.81
1,easy,9,2,0,247.819
1,easy,9,3,1,297.138
1,easy,9,4,1,209.356
1,easy,9,5,1,249.987
1,easy,9,6,0,385.667
1,easy,9,7,1,528.92
1,easy,9,8,0,308.911
1,easy,9,9,1,676.718
1,easy,9,10,1,261.38
1,easy,10,1,0,683.404
1,easy,10,2,1,195.868
1,easy,10,3,0,383.844
1,easy,10,4,0,251.018
1,easy,10,5,1,277.763
1,easy,10,6,0,388.658
1,easy,10,7,1,525.173
1,easy,10,8,1,286.361
1,easy,10,9,0,800.549
1,easy,10,10,0,354.437
1,easy,11,1,1,595.558
1,easy,11,2,0,245.405
1,easy,11,3,0,335.828
1,easy,11,4,0,246.461
1,easy,11,5,1,277.706
1,easy,11,6,0,388.949
1,easy,11,7,0,653.448
1,easy,11,8,0,319.584
1,easy,11,9,0,846.577
1,easy,11,10,0,374.071
1,easy,12,1,1,515.538
1,easy,12,2,0,224.381
1,easy,12,3,0,368.293
1,easy,12,4,1,217.491
1,easy,12,5,1,285.269
1,easy,12,6,0,370.085
1,easy,12,7,1,550.95
1,easy,12,8,0,357.756
1,easy,12,9,0,875.579
1,easy,12,10,0,339.055
1,easy,13,1,1,613.807
1,easy,13,2,0,215.021
1,easy,13,3,1,298.136
1,easy,13,4,0,267.659
1,easy,13,5,0,328.574
1,easy,13,6,0,406.104
1,easy,13,7,0,612.026
1,easy,13,8,0,331.61
1,easy,13,9,1,686.952
1,easy,13,10,0,371.043
1,easy,14,1,1,555.352
1,easy,14,2,0,217.712
1,easy,14,3,0,317.347
1,easy,14,4,1,215.26
1,easy,14,5,1,282.666
1,easy,14,6,0,358.273
1,easy,14,7,1,538.428
1,easy,14,8,0,326.371
1,easy,14,9,0,751.312
1,easy,14,10,0,363.545
1,easy,15,1,1,589.771
1,easy,15,2,0,252.052
1,easy,15,3,0,339.84
1,easy,15,4,0,245.588
1,easy,15,5,1,281.752
1,easy,15,6,0,397.212
1,easy,15,7,1,571.793
1,easy,15,8,0,340.456
1,easy,15,9,1,626.651
1,easy,15,10,1,281.083
1,easy,16,1,1,622.831
1,easy,16,2,1,192.107
1,easy,16,3,1,270.339
1,easy,16,4,1,213.736
1,easy,16,5,0,362.885
1,easy,16,6,0,346.883
1,easy,16,7,1,503.608
1,easy,16,8,0,304.417
1,easy,16,9,1,669.026
1,easy,16,10,1,304.434
1,easy,17,1,1,533.753
1,easy,17,2,1,200.261
1,easy,17,3,0,335.77
1,easy,17,4,1,193.016
1,easy,17,5,1,285.671
1,easy,17,6,1,295.485
1,easy,17,7,1,511.028
1,easy,17,8,0,318.526
1,easy,17,9,1,688.404
1,easy,17,10,0,352.878
1,easy,18,1,1,578.57
1,easy,18,2,0,246.565
1,easy,18,3,1,288.427
1,easy,18,4,1,209.86
1,easy,18,5,0,301.608
1,easy,18,6,0,399.929
1,easy,18,7,0,609
1,easy,18,8,1,281.91
1,easy,18,9,1,641.736
1,easy,18,10,0,339.175
1,easy,19,1,1,556.651
1,easy,19,2,1,200.083
1,easy,19,3,0,345.737
1,easy,19,4,0,262.619
1,easy,19,5,0,358.137
1,easy,19,6,0,378.879
1,easy,19,7,1,576.262
1,easy,19,8,0,356.975
1,easy,19,9,1,702.298
1,easy,19,10,0,347.295
1,easy,20,1,1,559.319
1,easy,20,2,0,250.912
1,easy,20,3,0,356.198
1,easy,20,4,1,209.184
1,easy,20,5,1,270.853
1,easy,20,6,0,368.89
1,easy,20,7,1,564.507
1,easy,20,8,0,356.93
1,easy,20,9,1,655.307
1,easy,20,10,1,288.056
1,easy,21,1,1,501.798
1,easy,21,2,0,224.989
1,easy,21,3,1,309.627
1,easy,21,4,0,249.241
1,easy,21,5,1,245.503
1,easy,21,6,0,434.682
1,easy,21,7,1,516.236
1,easy,21,8,0,363.045
1,easy,21,9,1,636.028
1,easy,21,10,0,311.967
1,easy,22,1,1,546.518
1,easy,22,2,0,242.859
1,easy,22,3,0,350.785
1,easy,22,4,0,262.151
1,easy,22,5,1,264.324
1,easy,22,6,1,294.147
1,easy,22,7,1,547.227
1,easy,22,8,0,336.264
1,easy,22,9,1,630.546
1,easy,22,10,0,365.098
1,easy,23,1,1,551.953
1,easy,23,2,0,232.19
1,easy,23,3,0,351.766
1,easy,23,4,1,203.372
1,easy,23,5,0,340.898
1,easy,23,6,0,386.278
1,easy,23,7,1,541.022
1,easy,23,8,0,330.171
1,easy,23,9,1,687.747
1,easy,23,10,1,310.049
1,easy,24,1,1,551.409
1,easy,24,2,0,225.414
1,easy,24,3,0,347.241
1,easy,24,4,1,217.24
1,easy,24,5,0,322.884
1,easy,24,6,0,372.83
1,easy,24,7,1,562.118
1,easy,24,8,0,328.561
1,easy,24,9,1,614.798
1,easy,24,10,1,283.23
1,easy,25,1,1,602.269
1,easy,25,2,0,239.091
1,easy,25,3,1,305.823
1,easy,25,4,0,239.923
1,easy,25,5,0,338.307
1,easy,25,6,0,371.219
1,easy,25,7,1,519.891
1,easy,25,8,0,350.106
1,easy,25,9,1,715.167
1,easy,25,10,0,340.245
1,easy,26,1,1,575.599
1,easy,26,2,0,229.228
1,easy,26,3,0,355.599
1,easy,26,4,0,253.353
1,easy,26,5,1,272.24
1,easy,26,6,0,386.456
1,easy,26,7,0,626.18
1,easy,26,8,0,349.402
1,easy,26,9,0,788.766
1,easy,26,10,1,274.28
1,easy,27,1,1,554.445
1,easy,27,2,0,241.805
1,easy,27,3,1,291.039
1,easy,27,4,0,241.478
1,easy,27,5,0,336.462
1,easy,27,6,0,364.186
1,easy,27,7,0,650.83
1,easy,27,8,0,334.792
1,easy,27,9,0,801.846
1,easy,27,10,1,283.39
1,easy,28,1,1,565.882
1,easy,28,2,0,234.14
1,easy,28,3,1,279.319
1,easy,28,4,1,207.837
1,easy,28,5,1,259.094
1,easy,28,6,0,340.734
1,easy,28,7,1,507.806
1,easy,28,8,0,331.312
1,easy,28,9,0,773.139
1,easy,28,10,1,303.78
1,easy,29,1,1,535.37
1,easy,29,2,0,220.168
1,easy,29,3,1,277.893
1,easy,29,4,0,271.775
1,easy,29,5,0,323.753
1,easy,29,6,0,355.967
1,easy,29,7,0,603.724
1,easy,29,8,0,345.782
1,easy,29,9,1,730.244
1,easy,29,10,0,352.115
1,easy,30,1,1,509.523
1,easy,30,2,1,193.052
1,easy,30,3,0,383.031
1,easy,30,4,1,210.683
1,easy,30,5,1,260.614
1,easy,30,6,0,397.16
1,easy,30,7,1,520.913
1,easy,30,8,0,316.051
1,easy,30,9,0,801.668
1,easy,30,10,0,348.874
1,easy,31,1,1,523.874
1,easy,31,2,0,236.133
1,easy,31,3,1,303.094
1,easy,31,4,0,241.903
1,easy,31,5,0,315.441
1,easy,31,6,1,301.753
1,easy,31,7,1,505.301
1,easy,31,8,0,299.439
1,easy,31,9,1,654.639
1,easy,31,10,0,328.564
1,easy,32,1,0,681.088
1,easy,32,2,1,178.083
1,easy,32,3,0,331.396
1,easy,32,4,0,238.409
1,easy,32,5,1,261.737
1,easy,32,6,0,363.685
1,easy,32,7,1,514.863
1,easy,32,8,0,327.379
1,easy,32,9,1,616.571
1,easy,32,10,1,295.095
1,easy,33,1,1,547.53
1,easy,33,2,0,217.775
1,easy,33,3,1,271.723
1,easy,33,4,0,250.412
1,easy,33,5,1,256.079
1,easy,33,6,1,326.482
1,easy,33,7,1,522.127
1,easy,33,8,0,335.116
1,easy,33,9,1,683.027
1,easy,33,10,0,402.563
1,easy,34,1,1,581.356
1,easy,34,2,1,192.359
1,easy,34,3,0,361.305
1,easy,34,4,1,218.96
1,easy,34,5,1,266.966
1,easy,34,6,0,348.167
1,easy,34,7,0,646.71
1,easy,34,8,0,347.313
1,easy,34,9,1,642.575
1,easy,34,10,1,281.904
1,easy,35,1,1,568.292
1,easy,35,2,0,232.91
1,easy,35,3,1,279.563
1,easy,35,4,0,245.363
1,easy,35,5,1,264.044
1,easy,35,6,0,409.177
1,easy,35,7,1,475.76
1,easy,35,8,0,341.454
1,easy,35,9,1,648.263
1,easy,35,10,0,347.316
1,easy,36,1,1,570.634
1,easy,36,2,0,223.392
1,easy,36,3,0,374.435
1,easy,36,4,0,235.628
1,easy,36,5,0,342.853
1,easy,36,6,1,291.537
1,easy,36,7,1,544.158
1,easy,36,8,0,328.489
1,easy,36,9,1,702.961
1,easy,36,10,1,303.386
1,easy,37,1,1,562.976
1,easy,37,2,0,248.979
1,easy,37,3,1,301.425
1,easy,37,4,0,261.465
1,easy,37,5,1,262.332
1,easy,37,6,0,359.699
1,easy,37,7,0,667.691
1,easy,37,8,0,379.012
1,easy,37,9,1,609.846
1,easy,37,10,1,297.825
1,easy,38,1,1,564.513
1,easy,38,2,1,190.861
1,easy,38,3,1,260.449
1,easy,38,4,0,241.915
1,easy,38,5,1,259.945
1,easy,38,6,0,385.525
1,easy,38,7,1,507.655
1,easy,38,8,0,315.047
1,easy,38,9,0,764.843
1,easy,38,10,1,292.676
1,easy,39,1,1,525.699
1,easy,39,2,1,193.486
1,easy,39,3,0,345.354
1,easy,39,4,0,278.856
1,easy,39,5,1,259.78
1,easy,39,6,0,376.737
1,easy,39,7,1,567.014
1,easy,39,8,0,326.306
1,easy,39,9,1,639.759
1,easy,39,10,1,282.003
1,easy,40,1,1,576.3
1,easy,40,2,0,245.743
1,easy,40,3,0,360.042
1,easy,40,4,0,244.77
1,easy,40,5,0,316.994
1,easy,40,6,0,353.649
1,easy,40,7,1,493.934
1,easy,40,8,0,359.419
1,easy,40,9,1,631.765
1,easy,40,10,1,277.648
1,easy,41,1,1,580.833
1,easy,41,2,0,231.569
1,easy,41,3,0,366.678
1,easy,41,4,1,204.129
1,easy,41,5,0,297.321
1,easy,41,6,0,360.674
1,easy,41,7,1,532.659
1,easy,41,8,0,291.784
1,easy,41,9,0,749.934
1,easy,41,10,1,295.394
1,easy,42,1,1,609.083
1,easy,42,2,0,232.912
1,easy,42,3,0,356.084
1,easy,42,4,1,207.985
1,easy,42,5,1,258.334
1,easy,42,6,0,379.521
1,easy,42,7,1,480.754
1,easy,42,8,0,341.946
1,easy,42,9,1,653.4
1,easy,42,10,0,361.525
1,easy,43,1,1,561.621
1,easy,43,2,0,229.08
1,easy,43,3,0,356.959
1,easy,43,4,1,211.733
1,easy,43,5,0,297.025
1,easy,43,6,1,308.855
1,easy,43,7,0,647.567
1,easy,43,8,0,352.14
1,easy,43,9,1,691.885
1,easy,43,10,1,304.267
1,easy,44,1,1,544.173
1,easy,44,2,0,230.59
1,easy,44,3,0,375.243
1,easy,44,4,1,206.993
1,easy,44,5,0,339.488
1,easy,44,6,0,343.735
1,easy,44,7,0,601.349
1,easy,44,8,0,334.652
1,easy,44,9,1,636.192
1,easy,44,10,1,276.044
1,easy,45,1,1,528.54
1,easy,45,2,0,243.393
1,easy,45,3,1,289.78
1,easy,45,4,1,196.478
1,easy,45,5,0,317.16
1,easy,45,6,0,353.755
1,easy,45,7,0,634.999
1,easy,45,8,0,357.66
1,easy,45,9,1,695.502
1,easy,45,10,1,282.607
1,easy,46,1,1,566.582
1,easy,46,2,0,227.972
1,easy,46,3,0,357.204
1,easy,46,4,1,221.055
1,easy,46,5,0,341.711
1,easy,46,6,0,338.056
1,easy,46,7,1,578.544
1,easy,46,8,0,338.842
1,easy,46,9,1,635.164
1,easy,46,10,0,402.552
1,easy,47,1,1,573.308
1,easy,47,2,0,231.6
1,easy,47,3,0,351.068
1,easy,47,4,1,198.758
1,easy,47,5,1,281.22
1,easy,47,6,0,344.874
1,easy,47,7,1,566.197
1,easy,47,8,0,324.851
1,easy,47,9,1,662.332
1,easy,47,10,0,356.952
1,easy,48,1,1,572.958
1,easy,48,2,0,253.73
1,easy,48,3,0,359.027
1,easy,48,4,1,215.181
1,easy,48,5,0,321.872
1,easy,48,6,0,408.998
1,easy,48,7,1,517.803
1,easy,48,8,0,354.445
1,easy,48,9,1,684.42
1,easy,48,10,0,373.377
1,easy,49,1,1,545.967
1,easy,49,2,0,244.339
1,easy,49,3,0,334.039
1,easy,49,4,0,261.216
1,easy,49,5,0,328.344
1,easy,49,6,0,323.015
1,easy,49,7,1,492.415
1,easy,49,8,0,350.637
1,easy,49,9,1,603.808
1,easy,49,10,0,347.408
1,easy,50,1,1,551.816
1,easy,50,2,0,229.6
1,easy,50,3,0,346.893
1,easy,50,4,0,270.472
1,easy,50,5,1,309.11
1,easy,50,6,0,361.492
1,easy,50,7,1,512.823
1,easy,50,8,0,329.091
1,easy,50,9,1,640.224
1,easy,50,10,1,281.953
1,easy,51,1,1,568.828
1,easy,51,2,0,224.268
1,easy,51,3,1,255.642
1,easy,51,4,0,249.724
1,easy,51,5,1,267.994
1,easy,51,6,0,379.443
1,easy,51,7,0,687.69
1,easy,51,8,0,332.456
1,easy,51,9,1,623.15
1,easy,51,10,1,296.52
1,easy,52,1,1,540.733
1,easy,52,2,0,230.619
1,easy,52,3,0,334.66
1,easy,52,4,1,212.844
1,easy,52,5,1,265.841
1,easy,52,6,0,366.267
1,easy,52,7,0,648.353
1,easy,52,8,0,353.013
1,easy,52,9,1,734.8
1,easy,52,10,1,318.555
1,easy,53,1,1,553.881
1,easy,53,2,0,235.944
1,easy,53,3,0,337.258
1,easy,53,4,1,212.17
1,easy,53,5,0,334.031
1,easy,53,6,0,381.063
1,easy,53,7,1,495.054
1,easy,53,8,1,276.599
1,easy,53,9,1,639.662
1,easy,53,10,0,368.082
1,easy,54,1,1,549.859
1,easy,54,2,0,237.577
1,easy,54,3,1,282.174
1,easy,54,4,1,219.122
1,easy,54,5,1,257.385
1,easy,54,6,0,389.387
1,easy,54,7,1,537.912
1,easy,54,8,0,334.183
1,easy,54,9,1,640.464
1,easy,54,10,0,334.804
1,easy,55,1,1,568.063
1,easy,55,2,0,236.908
1,easy,55,3,1,282.884
1,easy,55,4,1,213.673
1,easy,55,5,1,271.31
1,easy,55,6,0,370.714
1,easy,55,7,1,473.367
1,easy,55,8,0,321.063
1,easy,55,9,1,688.546
1,easy,55,10,0,341.768
1,easy,56,1,0,681.536
1,easy,56,2,1,206.527
1,easy,56,3,1,266.959
1,easy,56,4,1,216.386
1,easy,56,5,0,362.101
1,easy,56,6,0,383.152
1,easy,56,7,1,481.804
1,easy,56,8,0,321.977
1,easy,56,9,1,616.499
1,easy,56,10,1,278.28
1,easy,57,1,1,581.496
1,easy,57,2,0,220.081
1,easy,57,3,1,308.459
1,easy,57,4,0,251.382
1,easy,57,5,1,274.396
1,easy,57,6,0,365.854
1,easy,57,7,0,650
1,easy,57,8,0,312.898
1,easy,57,9,1,731.945
1,easy,57,10,0,375.395
1,easy,58,1,1,583.2
1,easy,58,2,0,243.287
1,easy,58,3,0,360.185
1,easy,58,4,1,201.664
1,easy,58,5,1,270.649
1,easy,58,6,0,352.315
1,easy,58,7,1,553.912
1,easy,58,8,0,356.901
1,easy,58,9,0,838.685
1,easy,58,10,1,295.504
1,easy,59,1,0,699.947
1,easy,59,2,1,173.335
1,easy,59,3,0,342.747
1,easy,59,4,1,197.472
1,easy,59,5,0,313.057
1,easy,59,6,1,291.732
1,easy,59,7,1,534.47
1,easy,59,8,0,341.45
1,easy,59,9,1,705.019
1,easy,59,10,0,323.458
1,easy,60,1,1,588.257
1,easy,60,2,0,255.24
1,easy,60,3,0,361.562
1,easy,60,4,1,205.861
1,easy,60,5,0,331.778
1,easy,60,6,0,394.272
1,easy,60,7,1,516.101
1,easy,60,8,0,319.86
1,easy,60,9,0,758.919
1,easy,60,10,1,274.834
1,easy,61,1,1,525.71
1,easy,61,2,1,185.488
1,easy,61,3,0,337.738
1,easy,61,4,0,248.21
1,easy,61,5,0,323.281
1,easy,61,6,0,353.931
1,easy,61,7,1,565.555
1,easy,61,8,0,335.496
1,easy,61,9,0,828.583
1,easy,61,10,0,364.963
1,easy,62,1,1,588.087
1,easy,62,2,1,189.717
1,easy,62,3,0,376.678
1,easy,62,4,0,262.29
1,easy,62,5,0,326.26
1,easy,62,6,0,386.753
1,easy,62,7,1,540.552
1,easy,62,8,0,318.879
1,easy,62,9,1,691.071
1,easy,62,10,0,382.973
1,easy,63,1,1,583.711
1,easy,63,2,0,237.474
1,easy,63,3,0,369.475
1,easy,63,4,0,234.713
1,easy,63,5,0,312.391
1,easy,63,6,1,302.323
1,easy,63,7,1,531.024
1,easy,63,8,0,327.398
1,easy,63,9,1,676.589
1,easy,63,10,1,304.613
1,easy,64,1,0,689.207
1,easy,64,2,0,252.982
1,easy,64,3,1,273.542
1,easy,64,4,1,200.447
1,easy,64,5,1,275.623
1,easy,64,6,0,348.085
1,easy,64,7,1,506.775
1,easy,64,8,0,309.452
1,easy,64,9,1,628.034
1,easy,64,10,1,281.877
1,easy,65,1,1,626.78
1,easy,65,2,1,193.285
1,easy,65,3,1,275.936
1,easy,65,4,1,209.457
1,easy,65,5,1,262.299
1,easy,65,6,0,357.54
1,easy,65,7,1,544.155
1,easy,65,8,0,328.88
1,easy,65,9,1,634.497
1,easy,65,10,1,286.895
1,easy,66,1,1,584.829
1,easy,66,2,0,241.853
1,easy,66,3,0,348.194
1,easy,66,4,1,219.013
1,easy,66,5,1,274.654
1,easy,66,6,0,371.726
1,easy,66,7,1,569.722
1,easy,66,8,0,354.323
1,easy,66,9,1,679.292
1,easy,66,10,0,331.353
1,easy,67,1,1,513.939
1,easy,67,2,0,207.968
1,easy,67,3,0,355.988
1,easy,67,4,0,245.692
1,easy,67,5,1,249.419
1,easy,67,6,0,390.182
1,easy,67,7,1,560.247
1,easy,67,8,0,318.733
1,easy,67,9,1,656.059
1,easy,67,10,0,354.342
1,easy,68,1,1,557.584
1,easy,68,2,0,250.35
1,easy,68,3,0,369.124
1,easy,68,4,0,238.932
1,easy,68,5,0,326.91
1,easy,68,6,0,356.601
1,easy,68,7,1,573.348
1,easy,68,8,0,350.187
1,easy,68,9,1,677.543
1,easy,68,10,0,391.96
1,easy,69,1,1,584.158
1,easy,69,2,0,240.416
1,easy,69,3,0,347.059
1,easy,69,4,1,213.398
1,easy,69,5,0,314.303
1,easy,69,6,0,390.679
1,easy,69,7,1,522.705
1,easy,69,8,0,322.54
1,easy,69,9,1,741.25
1,easy,69,10,0,357.379
1,easy,70,1,0,641.792
1,easy,70,2,1,191.821
1,easy,70,3,0,353.754
1,easy,70,4,0,259.162
1,easy,70,5,1,262.84
1,easy,70,6,0,376.065
1,easy,70,7,1,540.1
1,easy,70,8,0,330.858
1,easy,70,9,0,789.551
1,easy,70,10,0,349.136
1,easy,71,1,1,568.848
1,easy,71,2,0,234.193
1,easy,71,3,0,352.472
1,easy,71,4,1,194.225
1,easy,71,5,0,335.946
1,easy,71,6,0,351.168
1,easy,71,7,1,538.539
1,easy,71,8,0,317.801
1,easy,71,9,1,655.808
1,easy,71,10,1,293.442
1,easy,72,1,1,543.402
1,easy,72,2,0,230.768
1,easy,72,3,0,365.114
1,easy,72,4,1,195.346
1,easy,72,5,0,331.429
1,easy,72,6,0,378.554
1,easy,72,7,1,546.12
1,easy,72,8,0,369.811
1,easy,72,9,1,675.741
1,easy,72,10,0,336.014
1,easy,73,1,1,532.892
1,easy,73,2,0,227.209
1,easy,73,3,1,287.624
1,easy,73,4,1,198.858
1,easy,73,5,1,268.384
1,easy,73,6,0,368.767
1,easy,73,7,0,684.337
1,easy,73,8,0,309.201
1,easy,73,9,1,646.14
1,easy,73,10,1,289.262
1,easy,74,1,1,577.091
1,easy,74,2,0,230
1,easy,74,3,0,334.158
1,easy,74,4,1,199.717
1,easy,74,5,1,294.862
1,easy,74,6,1,299.985
1,easy,74,7,1,536.238
1,easy,74,8,0,340.406
1,easy,74,9,1,683.935
1,easy,74,10,0,345.698
1,easy,75,1,0,657.09
1,easy,75,2,0,252.146
1,easy,75,3,1,297.606
1,easy,75,4,1,209.545
1,easy,75,5,1,269.18
1,easy,75,6,0,380.096
1,easy,75,7,0,616.289
1,easy,75,8,0,353.932
1,easy,75,9,0,780.991
1,easy,75,10,1,276.114
1,easy,76,1,1,590.722
1,easy,76,2,0,230.694
1,easy,76,3,0,372.303
1,easy,76,4,1,214.488
1,easy,76,5,1,292.774
1,easy,76,6,0,361.175
1,easy,76,7,1,539.788
1,easy,76,8,0,335.179
1,easy,76,9,1,647.266
1,easy,76,10,0,370.742
1,easy,77,1,1,581.68
1,easy,77,2,0,234.316
1,easy,77,3,1,289.849
1,easy,77,4,0,266.933
1,easy,77,5,1,259.416
1,easy,77,6,0,351.224
1,easy,77,7,1,601.582
1,easy,77,8,0,327.798
1,easy,77,9,1,651.028
1,easy,77,10,0,355.492
1,easy,78,1,0,698.728
1,easy,78,2,0,227.254
1,easy,78,3,0,368.919
1,easy,78,4,0,253.732
1,easy,78,5,1,272.199
1,easy,78,6,0,337.431
1,easy,78,7,1,543.504
1,easy,78,8,0,343.28
1,easy,78,9,1,631.912
1,easy,78,10,0,369.858
1,easy,79,1,1,592.43
1,easy,79,2,0,221.43
1,easy,79,3,1,317.212
1,easy,79,4,1,204.413
1,easy,79,5,0,330.475
1,easy,79,6,0,381.228
1,easy,79,7,1,477.662
1,easy,79,8,0,359.898
1,easy,79,9,0,787.519
1,easy,79,10,0,363.556
1,easy,80,1,1,555.757
1,easy,80,2,0,236.21
1,easy,80,3,0,355.663
1,easy,80,4,1,190.878
1,easy,80,5,1,269.812
1,easy,80,6,0,389.62
1,easy,80,7,1,554
1,easy,80,8,1,273.833
1,easy,80,9,1,672.661
1,easy,80,10,0,344.792
1,easy,81,1,1,582.656
1,easy,81,2,0,250.375
1,easy,81,3,1,270.202
1,easy,81,4,0,247.548
1,easy,81,5,0,329.946
1,easy,81,6,0,394.591
1,easy,81,7,1,531.232
1,easy,81,8,0,335.408
1,easy,81,9,1,717.194
1,easy,81,10,1,276.581
1,easy,82,1,1,581.017
1,easy,82,2,0,257.277
1,easy,82,3,0,356.364
1,easy,82,4,0,259.032
1,easy,82,5,1,259.214
1,easy,82,6,0,393.997
1,easy,82,7,1,606.966
1,easy,82,8,0,339.05
1,easy,82,9,1,654.073
1,easy,82,10,0,398.708
1,easy,83,1,1,569.376
1,easy,83,2,1,199.335
1,easy,83,3,0,362.633
1,easy,83,4,1,209.075
1,easy,83,5,1,275.057
1,easy,83,6,1,293.207
1,easy,83,7,1,576.871
1,easy,83,8,0,332.699
1,easy,83,9,1,684.255
1,easy,83,10,1,305.548
1,easy,84,1,1,536.099
1,easy,84,2,1,193.4
1,easy,84,3,0,339.742
1,easy,84,4,1,222.195
1,easy,84,5,1,274.422
1,easy,84,6,0,359.889
1,easy,84,7,0,682.8
1,easy,84,8,0,311.255
1,easy,84,9,1,600.542
1,easy,84,10,1,295.607
1,easy,85,1,1,590.526
1,easy,85,2,1,189.161
1,easy,85,3,0,350.579
1,easy,85,4,0,246.05
1,easy,85,5,0,337.102
1,easy,85,6,1,298.608
1,easy,85,7,1,558.094
1,easy,85,8,0,331.457
1,easy,85,9,0,771.438
1,easy,85,10,0,354.523
1,easy,86,1,1,571.901
1,easy,86,2,0,230.951
1,easy,86,3,0,361.256
1,easy,86,4,0,246.991
1,easy,86,5,0,302.919
1,easy,86,6,1,284.639
1,easy,86,7,1,488.844
1,easy,86,8,0,330.778
1,easy,86,9,1,664.868
1,easy,86,10,0,343.428
1,easy,87,1,1,632.555
1,easy,87,2,0,225.134
1,easy,87,3,0,351.834
1,easy,87,4,0,260.511
1,easy,87,5,1,260.696
1,easy,87,6,0,374.154
1,easy,87,7,1,504.965
1,easy,87,8,0,331.984
1,easy,87,9,1,657.377
1,easy,87,10,1,316.032
1,easy,88,1,1,545.541
1,easy,88,2,1,176.667
1,easy,88,3,1,265.423
1,easy,88,4,1,209.239
1,easy,88,5,0,349.768
1,easy,88,6,0,349.899
1,easy,88,7,1,505.996
1,easy,88,8,0,358.496
1,easy,88,9,1,698.104
1,easy,88,10,1,276.646
1,easy,89,1,0,710.115
1,easy,89,2,0,240.532
1,easy,89,3,0,327.249
1,easy,89,4,1,198.054
1,easy,89,5,1,272.097
1,easy,89,6,0,382.956
1,easy,89,7,0,661.252
1,easy,89,8,0,312.948
1,easy,89,9,1,602.985
1,easy,89,10,0,336.6
1,easy,90,1,1,565.355
1,easy,90,2,0,228.545
1,easy,90,3,1,265.514
1,easy,90,4,0,245.625
1,easy,90,5,0,318.918
1,easy,90,6,1,312.533
1,easy,90,7,0,686.673
1,easy,90,8,0,316.234
1,easy,90,9,1,634.011
1,easy,90,10,1,299.65
1,easy,91,1,1,538.323
1,easy,91,2,0,237.637
1,easy,91,3,1,276.42
1,easy,91,4,0,267.269
1,easy,91,5,1,280.148
1,easy,91,6,0,370.553
1,easy,91,7,0,619.86
1,easy,91,8,0,336.007
1,easy,91,9,0,811.966
1,easy,91,10,0,343.467
1,easy,92,1,1,542.676
1,easy,92,2,0,250.257
1,easy,92,3,1,283.304
1,easy,92,4,0,255.767
1,easy,92,5,0,327.577
1,easy,92,6,1,314.668
1,easy,92,7,0,636.02
1,easy,92,8,0,376.525
1,easy,92,9,1,655.996
1,easy,92,10,0,345.609
1,easy,93,1,1,558.334
1,easy,93,2,1,214.434
1,easy,93,3,1,299.202
1,easy,93,4,1,212.294
1,easy,93,5,1,265.885
1,easy,93,6,0,381.817
1,easy,93,7,1,521.521
1,easy,93,8,0,327.287
1,easy,93,9,1,675.636
1,easy,93,10,0,353.062
1,easy,94,1,0,694.526
1,easy,94,2,0,233.651
1,easy,94,3,0,330.256
1,easy,94,4,1,192.503
1,easy,94,5,0,317.352
1,easy,94,6,0,381.961
1,easy,94,7,0,637.149
1,easy,94,8,0,329.455
1,easy,94,9,1,692.764
1,easy,94,10,0,351.007
1,easy,95,1,1,528.583
1,easy,95,2,0,258.519
1,easy,95,3,1,282.229
1,easy,95,4,1,203.84
1,easy,95,5,1,281.511
1,easy,95,6,0,392.125
1,easy,95,7,1,538.153
1,easy,95,8,0,308.778
1,easy,95,9,0,841.835
1,easy,95,10,1,293.066
1,easy,96,1,1,539.134
1,easy,96,2,0,221.652
1,easy,96,3,1,287.28
1,easy,96,4,1,211.795
1,easy,96,5,1,283.268
1,easy,96,6,0,346.699
1,easy,96,7,1,497.208
1,easy,96,8,1,268.245
1,easy,96,9,1,717.73
1,easy,96,10,0,336.718
1,easy,97,1,1,560.535
1,easy,97,2,0,223.394
1,easy,97,3,0,357.07
1,easy,97,4,1,211.532
1,easy,97,5,0,360.693
1,easy,97,6,0,366.505
1,easy,97,7,0,634.767
1,easy,97,8,1,266.868
1,easy,97,9,1,695.822
1,easy,97,10,1,291.808
1,easy,98,1,1,590.583
1,easy,98,2,1,212.809
1,easy,98,3,0,365.246
1,easy,98,4,1,206.861
1,easy,98,5,0,348.298
1,easy,98,6,0,389
1,easy,98,7,1,598.781
1,easy,98,8,0,350.506
1,easy,98,9,1,705.685
1,easy,98,10,1,288.313
1,easy,99,1,1,542.632
1,easy,99,2,0,218.994
1,easy,99,3,0,344.6
1,easy,99,4,1,216.51
1,easy,99,5,0,337.033
1,easy,99,6,0,362.236
1,easy,99,7,1,577.99
1,easy,99,8,0,369.175
1,easy,99,9,1,684.528
1,easy,99,10,0,359.281
1,easy,100,1,0,729.193
1,easy,100,2,0,245.067
1,easy,100,3,0,348.322
1,easy,100,4,0,276.752
1,easy,100,5,0,325.277
1,easy,100,6,1,301.504
1,easy,100,7,1,529.298
1,easy,100,8,0,353.095
1,easy,100,9,1,631.512
1,easy,100,10,1,334.092
1,easy,101,1,1,614.293
1,easy,101,2,1,189.406
1,easy,101,3,0,376.019
1,easy,101,4,1,202.786
1,easy,101,5,1,255.537
1,easy,101,6,1,310.893
1,easy,101,7,0,637.744
1,easy,101,8,0,319.637
1,easy,101,9,1,668.017
1,easy,101,10,1,285.926
1,easy,102,1,0,663.398
1,easy,102,2,1,195.471
1,easy,102,3,0,348.942
1,easy,102,4,1,201.577
1,easy,102,5,1,255.344
1,easy,102,6,0,364.586
1,easy,102,7,1,538.518
1,easy,102,8,0,339.714
1,easy,102,9,0,770.912
1,easy,102,10,0,349.12
1,easy,103,1,1,525.004
1,easy,103,2,0,231.994
1,easy,103,3,1,302.119
1,easy,103,4,0,259.617
1,easy,103,5,0,344.605
1,easy,103,6,1,313.435
1,easy,103,7,1,575.944
1,easy,103,8,0,338.572
1,easy,103,9,1,684.517
1,easy,103,10,0,368.257
1,easy,104,1,1,529.829
1,easy,104,2,0,241.607
1,easy,104,3,1,277
1,easy,104,4,1,204.359
1,easy,104,5,0,329.575
1,easy,104,6,0,359.966
1,easy,104,7,1,509.214
1,easy,104,8,0,357.055
1,easy,104,9,1,627.637
1,easy,104,10,0,352.206
1,easy,105,1,0,679.018
1,easy,105,2,0,241.017
1,easy,105,3,1,320.513
1,easy,105,4,1,204.482
1,easy,105,5,0,332.584
1,easy,105,6,0,370.949
1,easy,105,7,1,532.906
1,easy,105,8,0,338.321
1,easy,105,9,0,834.487
1,easy,105,10,1,301.626
1,easy,106,1,1,540.111
1,easy,106,2,0,227.002
1,easy,106,3,1,269.607
1,easy,106,4,0,256.007
1,easy,106,5,0,315.717
1,easy,106,6,1,313.999
1,easy,106,7,0,672.969
1,easy,106,8,0,365.153
1,easy,106,9,0,866.291
1,easy,106,10,1,302.241
1,easy,107,1,0,706.071
1,easy,107,2,0,227.233
1,easy,107,3,1,256.459
1,easy,107,4,1,222.178
1,easy,107,5,0,352.433
1,easy,107,6,0,390.116
1,easy,107,7,1,561.6
1,easy,107,8,0,340.024
1,easy,107,9,1,652.52
1,easy,107,10,1,286.477
1,easy,108,1,1,534.745
1,easy,108,2,0,244.942
1,easy,108,3,0,364.73
1,easy,108,4,1,225.296
1,easy,108,5,1,269.052
1,easy,108,6,0,405.665
1,easy,108,7,1,534.254
1,easy,108,8,0,360.394
1,easy,108,9,1,687.483
1,easy,108,10,1,290.489
1,easy,109,1,1,549.32
1,easy,109,2,0,224.929
1,easy,109,3,0,379.023
1,easy,109,4,1,215.873
1,easy,109,5,1,270.385
1,easy,109,6,0,374.36
1,easy,109,7,1,519.035
1,easy,109,8,0,284.965
1,easy,109,9,1,664.035
1,easy,109,10,0,338.619
1,easy,110,1,1,560.188
1,easy,110,2,0,232.742
1,easy,110,3,1,312.653
1,easy,110,4,1,209.379
1,easy,110,5,1,228.469
1,easy,110,6,0,364.618
1,easy,110,7,1,511.573
1,easy,110,8,0,336.825
1,easy,110,9,1,640.496
1,easy,110,10,1,316.251
1,easy,111,1,1,529.667
1,easy,111,2,0,223.379
1,easy,111,3,1,267.81
1,easy,111,4,0,248.477
1,easy,111,5,1,257.739
1,easy,111,6,0,350.675
1,easy,111,7,1,550.549
1,easy,111,8,0,343.45
1,easy,111,9,0,774.545
1,easy,111,10,1,272.599
1,easy,112,1,1,575.842
1,easy,112,2,0,220.659
1,easy,112,3,1,283.412
1,easy,112,4,1,211.523
1,easy,112,5,0,338.881
1,easy,112,6,0,363.106
1,easy,112,7,1,552.857
1,easy,112,8,1,271.807
1,easy,112,9,1,641.088
1,easy,112,10,0,397.861
1,easy,113,1,1,531.766
1,easy,113,2,1,191.987
1,easy,113,3,1,311.548
1,easy,113,4,0,261.545
1,easy,113,5,1,288.776
1,easy,113,6,0,375.122
1,easy,113,7,1,553.54
1,easy,113,8,0,336.018
1,easy,113,9,1,687.104
1,easy,113,10,0,365.295
1,easy,114,1,1,493.573
1,easy,114,2,0,227.569
1,easy,114,3,1,290.68
1,easy,114,4,1,217.213
1,easy,114,5,0,327.422
1,easy,114,6,0,358.37
1,easy,114,7,1,509.561
1,easy,114,8,0,328.837
1,easy,114,9,0,780.585
1,easy,114,10,1,292.644
1,easy,115,1,1,531.737
1,easy,115,2,0,227.037
1,easy,115,3,1,306.316
1,easy,115,4,1,213.376
1,easy,115,5,1,268.56
1,easy,115,6,0,410.806
1,easy,115,7,1,546.055
1,easy,115,8,0,316.033
1,easy,115,9,0,781.527
1,easy,115,10,1,298.354
1,easy,116,1,1,537.407
1,easy,116,2,0,245.713
1,easy,116,3,0,336.621
1,easy,116,4,1,233.378
1,easy,116,5,1,272.374
1,easy,116,6,0,397.488
1,easy,116,7,0,684.156
1,easy,116,8,0,348.725
1,easy,116,9,1,675.868
1,easy,116,10,1,300.849
1,easy,117,1,1,559.897
1,easy,117,2,0,238.942
1,easy,117,3,0,369.051
1,easy,117,4,0,279.425
1,easy,117,5,1,258.132
1,easy,117,6,0,365.131
1,easy,117,7,1,551.517
1,easy,117,8,0,348.493
1,easy,117,9,0,772.14
1,easy,117,10,0,348.501
1,easy,118,1,1,543.94
1,easy,118,2,0,215.208
1,easy,118,3,1,301.296
1,easy,118,4,1,205.763
1,easy,118,5,1,265.402
1,easy,118,6,0,372.992
1,easy,118,7,1,546.53
1,easy,118,8,0,317.819
1,easy,118,9,1,678.329
1,easy,118,10,1,290.439
1,easy,119,1,1,571.342
1,easy,119,2,1,181.714
1,easy,119,3,1,299.89
1,easy,119,4,1,189.934
1,easy,119,5,1,263.094
1,easy,119,6,0,382.858
1,easy,119,7,0,654.046
1,easy,119,8,0,314.582
1,easy,119,9,1,644.199
1,easy,119,10,0,344.829
1,easy,120,1,1,554.766
1,easy,120,2,0,236.21
1,easy,120,3,0,327.667
1,easy,120,4,1,220.485
1,easy,120,5,0,326.416
1,easy,120,6,1,316.992
1,easy,120,7,1,490.459
1,easy,120,8,0,344.054
1,easy,120,9,1,699.407
1,easy,120,10,1,296.623
1,easy,121,1,1,520.749
1,easy,121,2,0,250.073
1,easy,121,3,1,295.36
1,easy,121,4,0,276.252
1,easy,121,5,0,329.778
1,easy,121,6,0,396.381
1,easy,121,7,1,559.362
1,easy,121,8,0,332.411
1,easy,121,9,1,665.387
1,easy,121,10,0,359.435
1,easy,122,1,1,517.342
1,easy,122,2,0,241.602
1,easy,122,3,0,354.966
1,easy,122,4,0,237.237
1,easy,122,5,1,288.404
1,easy,122,6,0,377.609
1,easy,122,7,1,552.365
1,easy,122,8,0,359.007
1,easy,122,9,1,637.522
1,easy,122,10,1,309.804
1,easy,123,1,1,545.262
1,easy,123,2,0,231.811
1,easy,123,3,1,285.507
1,easy,123,4,0,255.291
1,easy,123,5,0,335.656
1,easy,123,6,0,416.387
1,easy,123,7,1,527.263
1,easy,123,8,1,249.517
1,easy,123,9,1,691.775
1,easy,123,10,1,304.396
1,easy,124,1,1,544.336
1,easy,124,2,0,235.602
1,easy,124,3,1,271.768
1,easy,124,4,1,202.424
1,easy,124,5,1,274.773
1,easy,124,6,0,401.734
1,easy,124,7,0,627.525
1,easy,124,8,0,368.484
1,easy,124,9,1,663.182
1,easy,124,10,0,354.282
1,easy,125,1,0,625.69
1,easy,125,2,0,229.42
1,easy,125,3,0,376.186
1,easy,125,4,0,279.488
1,easy,125,5,1,263.687
1,easy,125,6,0,370.122
1,easy,125,7,1,576.908
1,easy,125,8,0,331.125
1,easy,125,9,1,676.417
1,easy,125,10,1,292.975
1,easy,126,1,1,574.27
1,easy,126,2,0,244.53
1,easy,126,3,0,330.432
1,easy,126,4,0,266.352
1,easy,126,5,0,325.316
1,easy,126,6,0,347.752
1,easy,126,7,1,561.762
1,easy,126,8,0,326.465
1,easy,126,9,1,690.275
1,easy,126,10,0,358.172
1,easy,127,1,1,555.025
1,easy,127,2,0,248.191
1,easy,127,3,0,326.564
1,easy,127,4,0,270.333
1,easy,127,5,1,248.612
1,easy,127,6,0,378.235
1,easy,127,7,0,621.051
1,easy,127,8,0,349.851
1,easy,127,9,1,681.274
1,easy,127,10,1,289.266
1,easy,128,1,1,555.907
1,easy,128,2,0,226.016
1,easy,128,3,1,285.689
1,easy,128,4,1,209.224
1,easy,128,5,0,326.989
1,easy,128,6,0,371.411
1,easy,128,7,1,500.395
1,easy,128,8,0,325.366
1,easy,128,9,1,667.553
1,easy,128,10,1,305.553
1,easy,129,1,1,500.026
1,easy,129,2,0,245.381
1,easy,129,3,1,280.76
1,easy,129,4,0,253.736
1,easy,129,5,1,274.666
1,easy,129,6,0,364.495
1,easy,129,7,1,566.854
1,easy,129,8,0,321.239
1,easy,129,9,1,662.603
1,easy,129,10,1,301.963
1,easy,130,1,1,622.69
1,easy,130,2,0,228.475
1,easy,130,3,0,331.294
1,easy,130,4,0,253.363
1,easy,130,5,0,325.353
1,easy,130,6,0,354.073
1,easy,130,7,0,655.439
1,easy,130,8,0,325.034
1,easy,130,9,1,617.454
1,easy,130,10,1,305.189
1,easy,131,1,0,613.932
1,easy,131,2,0,239.177
1,easy,131,3,1,282.679
1,easy,131,4,1,201.999
1,easy,131,5,0,326.111
1,easy,131,6,0,386.24
1,easy,131,7,1,551.179
1,easy,131,8,0,351.789
1,easy,131,9,1,622.449
1,easy,131,10,1,288.895
1,easy,132,1,0,630.459
1,easy,132,2,0,226.647
1,easy,132,3,1,290.625
1,easy,132,4,1,218.776
1,easy,132,5,1,277.538
1,easy,132,6,0,367.251
1,easy,132,7,1,529.739
1,easy,132,8,0,380.989
1,easy,132,9,1,700.727
1,easy,132,10,0,320.916
1,easy,133,1,1,607.748
1,easy,133,2,0,223.932
1,easy,133,3,1,298.798
1,easy,133,4,0,243.807
1,easy,133,5,0,333.687
1,easy,133,6,0,367.98
1,easy,133,7,1,528.221
1,easy,133,8,0,319.465
1,easy,133,9,1,604.519
1,easy,133,10,1,291.53
1,easy,134,1,0,625.512
1,easy,134,2,0,257.939
1,easy,134,3,1,294.892
1,easy,134,4,0,252.22
1,easy,134,5,0,353.804
1,easy,134,6,0,385.287
1,easy,134,7,0,667.007
1,easy,134,8,0,318.728
1,easy,134,9,1,688.887
1,easy,134,10,1,311.333
1,easy,135,1,1,588.86
1,easy,135,2,1,202.508
1,easy,135,3,0,340.285
1,easy,135,4,1,208.261
1,easy,135,5,1,250.344
1,easy,135,6,0,357.889
1,easy,135,7,1,516.37
1,easy,135,8,0,326.349
1,easy,135,9,0,912.102
1,easy,135,10,0,349.883
1,easy,136,1,1,559.061
1,easy,136,2,0,232.921
1,easy,136,3,0,373.488
1,easy,136,4,1,193.037
1,easy,136,5,1,292.806
1,easy,136,6,1,287.86
1,easy,136,7,1,517.215
1,easy,136,8,0,327.469
1,easy,136,9,0,813.674
1,easy,136,10,1,307.565
1,easy,137,1,0,694.025
1,easy,137,2,0,245.475
1,easy,137,3,1,316.451
1,easy,137,4,1,205.005
1,easy,137,5,0,355.975
1,easy,137,6,0,425.388
1,easy,137,7,0,659.423
1,easy,137,8,0,311.396
1,easy,137,9,1,710.195
1,easy,137,10,1,295.33
1,easy,138,1,1,549.429
1,easy,138,2,0,236.628
1,easy,138,3,1,296.199
1,easy,138,4,0,257.344
1,easy,138,5,1,256.522
1,easy,138,6,0,369.393
1,easy,138,7,1,554.017
1,easy,138,8,0,313.797
1,easy,138,9,1,610.367
1,easy,138,10,0,366.652
1,easy,139,1,1,544.534
1,easy,139,2,0,233.781
1,easy,139,3,0,362.643
1,easy,139,4,0,262.515
1,easy,139,5,1,283.125
1,easy,139,6,0,368.233
1,easy,139,7,1,525.206
1,easy,139,8,0,320.114
1,easy,139,9,1,667.355
1,easy,139,10,0,343.295
1,easy,140,1,1,547.321
1,easy,140,2,1,180.508
1,easy,140,3,0,363.192
1,easy,140,4,0,257.873
1,easy,140,5,1,268.237
1,easy,140,6,0,356.526
1,easy,140,7,1,537.187
1,easy,140,8,0,330.339
1,easy,140,9,1,666.22
1,easy,140,10,1,291.959
1,easy,141,1,1,570.448
1,easy,141,2,0,255.438
1,easy,141,3,0,349.254
1,easy,141,4,1,206.149
1,easy,141,5,0,343.991
1,easy,141,6,0,364.581
1,easy,141,7,1,542.407
1,easy,141,8,0,321.662
1,easy,141,9,1,686.27
1,easy,141,10,0,369.556
1,easy,142,1,1,500.317
1,easy,142,2,0,227.001
1,easy,142,3,0,346.607
1,easy,142,4,0,289.398
1,easy,142,5,1,276.887
1,easy,142,6,0,373.706
1,easy,142,7,1,562.482
1,easy,142,8,0,327.087
1,easy,142,9,0,746.623
1,easy,142,10,1,288.115
1,easy,143,1,1,616.529
1,easy,143,2,0,248.874
1,easy,143,3,0,359.629
1,easy,143,4,1,202.606
1,easy,143,5,1,298.947
1,easy,143,6,0,361.512
1,easy,143,7,1,523.694
1,easy,143,8,0,319.458
1,easy,143,9,1,612.788
1,easy,143,10,0,365.865
1,easy,144,1,1,564.577
1,easy,144,2,1,184.595
1,easy,144,3,1,289.591
1,easy,144,4,1,224.168
1,easy,144,5,1,250.551
1,easy,144,6,1,303.913
1,easy,144,7,0,657.565
1,easy,144,8,1,290.504
1,easy,144,9,1,736.256
1,easy,144,10,0,341.921
1,easy,145,1,0,702.994
1,easy,145,2,0,228.72
1,easy,145,3,0,359.429
1,easy,145,4,1,200.758
1,easy,145,5,1,266.782
1,easy,145,6,0,398.494
1,easy,145,7,1,508.349
1,easy,145,8,0,350.247
1,easy,145,9,1,673.456
1,easy,145,10,0,337.026
1,easy,146,1,1,543.19
1,easy,146,2,0,232.94
1,easy,146,3,1,267.263
1,easy,146,4,1,208.731
1,easy,146,5,1,248.402
1,easy,146,6,0,394.596
1,easy,146,7,1,545.231
1,easy,146,8,0,351.572
1,easy,146,9,1,685.488
1,easy,146,10,0,389.591
1,easy,147,1,1,537.224
1,easy,147,2,0,232.418
1,easy,147,3,1,293.781
1,easy,147,4,0,250.851
1,easy,147,5,1,295.519
1,easy,147,6,0,401.917
1,easy,147,7,0,650.392
1,easy,147,8,0,342.316
1,easy,147,9,1,679.487
1,easy,147,10,1,280.766
1,easy,148,1,1,553.208
1,easy,148,2,0,238.534
1,easy,148,3,1,309.754
1,easy,148,4,1,213.209
1,easy,148,5,1,250.893
1,easy,148,6,0,367.225
1,easy,148,7,0,682.418
1,easy,148,8,0,325.067
1,easy,148,9,1,648.227
1,easy,148,10,1,281.807
1,easy,149,1,1,596.411
1,easy,149,2,0,230.851
1,easy,149,3,0,336.19
1,easy,149,4,0,262.438
1,easy,149,5,0,363.762
1,easy,149,6,0,373.35
1,easy,149,7,0,756.904
1,easy,149,8,0,328.981
1,easy,149,9,1,696.329
1,easy,149,10,0,359.155
1,easy,150,1,1,585.612
1,easy,150,2,0,241.122
1,easy,150,3,0,355.676
1,easy,150,4,0,257.606
1,easy,150,5,1,275.635
1,easy,150,6,0,387.512
1,easy,150,7,1,541.494
1,easy,150,8,0,328.556
1,easy,150,9,1,698.888
1,easy,150,10,1,290.91
1,easy,151,1,1,527.621
1,easy,151,2,1,197.578
1,easy,151,3,1,277.869
1,easy,151,4,1,218.885
1,easy,151,5,1,271.137
1,easy,151,6,0,388.915
1,easy,151,7,1,523.095
1,easy,151,8,0,316.158
1,easy,151,9,1,729.689
1,easy,151,10,1,311.344
1,easy,152,1,1,560.87
1,easy,152,2,0,227.382
1,easy,152,3,1,282.143
1,easy,152,4,0,257.069
1,easy,152,5,0,345.459
1,easy,152,6,0,380.957
1,easy,152,7,1,546.765
1,easy,152,8,0,334.717
1,easy,152,9,1,633.767
1,easy,152,10,1,291.335
1,easy,153,1,1,581.043
1,easy,153,2,0,255.394
1,easy,153,3,0,378.874
1,easy,153,4,1,192.785
1,easy,153,5,0,347.996
1,easy,153,6,1,311.787
1,easy,153,7,1,538.845
1,easy,153,8,0,313.249
1,easy,153,9,1,661.856
1,easy,153,10,0,347.122
1,easy,154,1,1,541.207
1,easy,154,2,0,253.448
1,easy,154,3,1,298.801
1,easy,154,4,1,190.57
1,easy,154,5,0,309.605
1,easy,154,6,0,357.677
1,easy,154,7,1,507.307
1,easy,154,8,0,346.434
1,easy,154,9,0,767.912
1,easy,154,10,0,346.229
1,easy,155,1,1,554.541
1,easy,155,2,0,250.517
1,easy,155,3,1,317.13
1,easy,155,4,1,214.657
1,easy,155,5,0,324.962
1,easy,155,6,0,380.556
1,easy,155,7,1,499.603
1,easy,155,8,0,359.571
1,easy,155,9,1,657.771
1,easy,155,10,0,344.626
1,easy,156,1,1,510.628
1,easy,156,2,0,215.382
1,easy,156,3,0,382.55
1,easy,156,4,1,214.453
1,easy,156,5,1,275.201
1,easy,156,6,0,367.492
1,easy,156,7,1,520.226
1,easy,156,8,0,321.246
1,easy,156,9,1,656.449
1,easy,156,10,0,340.323
1,easy,157,1,1,553.184
1,easy,157,2,0,238.29
1,easy,157,3,0,341.562
1,easy,157,4,1,201.212
1,easy,157,5,0,386.936
1,easy,157,6,0,391.199
1,easy,157,7,0,742.627
1,easy,157,8,0,321.968
1,easy,157,9,1,617.041
1,easy,157,10,1,289.958
1,easy,158,1,1,507.201
1,easy,158,2,0,224.316
1,easy,158,3,1,280.377
1,easy,158,4,1,205.091
1,easy,158,5,1,267.133
1,easy,158,6,0,369.272
1,easy,158,7,0,621.813
1,easy,158,8,1,275.11
1,easy,158,9,1,600.874
1,easy,158,10,1,288.956
1,easy,159,1,1,538.132
1,easy,159,2,0,235.187
1,easy,159,3,1,298.236
1,easy,159,4,1,203.072
1,easy,159,5,1,257.058
1,easy,159,6,1,307.688
1,easy,159,7,0,663.259
1,easy,159,8,0,344.47
1,easy,159,9,1,676.363
1,easy,159,10,0,340.605
1,easy,160,1,1,569.967
1,easy,160,2,0,252.194
1,easy,160,3,0,355.819
1,easy,160,4,0,242.839
1,easy,160,5,1,272.631
1,easy,160,6,0,359.138
1,easy,160,7,1,503.052
1,easy,160,8,0,403.484
1,easy,160,9,1,612.157
1,easy,160,10,0,345.226
1,easy,161,1,1,512.268
1,easy,161,2,0,224.821
1,easy,161,3,0,341.009
1,easy,161,4,0,265.43
1,easy,161,5,1,290.641
1,easy,161,6,0,389.792
1,easy,161,7,1,521.005
1,easy,161,8,0,316.853
1,easy,161,9,0,781.307
1,easy,161,10,1,293.336
1,easy,162,1,0,679.399
1,easy,162,2,0,213.774
1,easy,162,3,1,285.628
1,easy,162,4,0,235.127
1,easy,162,5,1,301.093
1,easy,162,6,0,408.079
1,easy,162,7,1,533.402
1,easy,162,8,1,267.071
1,easy,162,9,1,689.263
1,easy,162,10,1,283.417
1,easy,163,1,0,726.257
1,easy,163,2,1,186.035
1,easy,163,3,1,266.791
1,easy,163,4,0,239.25
1,easy,163,5,0,326.488
1,easy,163,6,0,399.674
1,easy,163,7,1,529.244
1,easy,163,8,0,349.358
1,easy,163,9,1,678.547
1,easy,163,10,0,376.659
1,easy,164,1,1,669.735
1,easy,164,2,0,235.491
1,easy,164,3,1,312.41
1,easy,164,4,1,216.494
1,easy,164,5,0,338.576
1,easy,164,6,1,296.771
1,easy,164,7,1,571.17
1,easy,164,8,0,323.185
1,easy,164,9,1,687.236
1,easy,164,10,0,332.701
1,easy,165,1,1,540.804
1,easy,165,2,0,235.072
1,easy,165,3,0,344.939
1,easy,165,4,1,209.204
1,easy,165,5,0,326.003
1,easy,165,6,1,314.49
1,easy,165,7,1,554.974
1,easy,165,8,0,332.293
1,easy,165,9,1,612.33
1,easy,165,10,1,297.105
1,easy,166,1,1,570.043
1,easy,166,2,0,254.471
1,easy,166,3,0,342.516
1,easy,166,4,0,230.401
1,easy,166,5,1,275.919
1,easy,166,6,1,319.622
1,easy,166,7,1,521.353
1,easy,166,8,0,342.736
1,easy,166,9,1,611.946
1,easy,166,10,1,282.897
1,easy,167,1,1,552.456
1,easy,167,2,0,247.999
1,easy,167,3,0,399.085
1,easy,167,4,0,233.675
1,easy,167,5,0,298.377
1,easy,167,6,1,303.846
1,easy,167,7,1,561.152
1,easy,167,8,0,303.795
1,easy,167,9,0,735.822
1,easy,167,10,1,291.464
1,easy,168,1,1,637.41
1,easy,168,2,0,252.459
1,easy,168,3,0,329.207
1,easy,168,4,1,210.496
1,easy,168,5,0,332.012
1,easy,168,6,0,362.239
1,easy,168,7,1,516.455
1,easy,168,8,0,343.067
1,easy,168,9,1,631.891
1,easy,168,10,1,290.809
1,easy,169,1,1,582.571
1,easy,169,2,1,176.092
1,easy,169,3,1,293.217
1,easy,169,4,1,199.233
1,easy,169,5,1,279.019
1,easy,169,6,0,347.184
1,easy,169,7,1,516.448
1,easy,169,8,0,356.318
1,easy,169,9,1,617.31
1,easy,169,10,0,364.248
1,easy,170,1,0,698.607
1,easy,170,2,0,223.534
1,easy,170,3,1,299.586
1,easy,170,4,1,186.558
1,easy,170,5,0,311.975
1,easy,170,6,0,353.22
1,easy,170,7,1,582.567
1,easy,170,8,0,337.416
1,easy,170,9,1,657.012
1,easy,170,10,0,369.102
1,easy,171,1,1,552.395
1,easy,171,2,0,244.139
1,easy,171,3,0,363.11
1,easy,171,4,1,211.452
1,easy,171,5,0,302.338
1,easy,171,6,1,304.312
1,easy,171,7,0,644.26
1,easy,171,8,0,319.599
1,easy,171,9,1,667.119
1,easy,171,10,1,267.136
1,easy,172,1,1,577.834
1,easy,172,2,0,218.344
1,easy,172,3,1,302.345
1,easy,172,4,0,269.724
1,easy,172,5,0,316.063
1,easy,172,6,0,340.921
1,easy,172,7,1,487.28
1,easy,172,8,0,319.9
1,easy,172,9,0,767.541
1,easy,172,10,0,349.796
1,easy,173,1,1,560.941
1,easy,173,2,0,217.211
1,easy,173,3,1,294.775
1,easy,173,4,0,268.342
1,easy,173,5,0,325.181
1,easy,173,6,0,407.491
1,easy,173,7,0,666.894
1,easy,173,8,1,265.933
1,easy,173,9,1,718.269
1,easy,173,10,0,329.515
1,easy,174,1,1,585.148
1,easy,174,2,0,221.372
1,easy,174,3,0,350.275
1,easy,174,4,0,245.057
1,easy,174,5,1,267.887
1,easy,174,6,1,324.499
1,easy,174,7,1,553.802
1,easy,174,8,0,360.665
1,easy,174,9,1,669.36
1,easy,174,10,1,295.454
1,easy,175,1,1,586.854
1,easy,175,2,0,243.278
1,easy,175,3,1,284.945
1,easy,175,4,1,231.629
1,easy,175,5,1,249.686
1,easy,175,6,0,346.789
1,easy,175,7,1,484.473
1,easy,175,8,0,323.903
1,easy,175,9,1,687.135
1,easy,175,10,1,284.763
1,easy,176,1,0,650.248
1,easy,176,2,0,248.562
1,easy,176,3,0,348.955
1,easy,176,4,0,251.975
1,easy,176,5,1,256.828
1,easy,176,6,0,344.531
1,easy,176,7,1,519.759
1,easy,176,8,0,312.993
1,easy,176,9,1,710.996
1,easy,176,10,1,276.854
1,easy,177,1,0,662.513
1,easy,177,2,0,238.463
1,easy,177,3,1,283.334
1,easy,177,4,1,211.508
1,easy,177,5,0,340.346
1,easy,177,6,1,314.716
1,easy,177,7,1,534.867
1,easy,177,8,0,318.476
1,easy,177,9,1,678.323
1,easy,177,10,1,308.213
1,easy,178,1,1,570.295
1,easy,178,2,0,239.942
1,easy,178,3,0,357.307
1,easy,178,4,1,201.255
1,easy,178,5,1,275.135
1,easy,178,6,0,367.856
1,easy,178,7,0,638.448
1,easy,178,8,0,319.609
1,easy,178,9,1,633.831
1,easy,178,10,1,282.596
1,easy,179,1,1,566.046
1,easy,179,2,0,220.753
1,easy,179,3,1,283.665
1,easy,179,4,1,191.883
1,easy,179,5,1,266.084
1,easy,179,6,0,393.762
1,easy,179,7,0,737.13
1,easy,179,8,0,312.129
1,easy,179,9,1,674.256
1,easy,179,10,1,283.279
1,easy,180,1,1,537.284
1,easy,180,2,0,238.383
1,easy,180,3,1,279.426
1,easy,180,4,0,261.749
1,easy,180,5,1,268.053
1,easy,180,6,0,346.979
1,easy,180,7,1,557.871
1,easy,180,8,0,350.675
1,easy,180,9,1,668.797
1,easy,180,10,0,329.163
1,easy,181,1,1,554.663
1,easy,181,2,0,240.556
1,easy,181,3,1,277.143
1,easy,181,4,1,210.737
1,easy,181,5,0,318.132
1,easy,181,6,1,296.739
1,easy,181,7,1,533.07
1,easy,181,8,0,330.242
1,easy,181,9,0,775.948
1,easy,181,10,1,293.165
1,easy,182,1,1,533.852
1,easy,182,2,0,239.056
1,easy,182,3,1,282.881
1,easy,182,4,0,243.206
1,easy,182,5,1,257.399
1,easy,182,6,1,316.979
1,easy,182,7,0,685.892
1,easy,182,8,0,350.014
1,easy,182,9,1,618.899
1,easy,182,10,0,364.777
1,easy,183,1,1,617.16
1,easy,183,2,0,251.285
1,easy,183,3,1,300.935
1,easy,183,4,1,217.481
1,easy,183,5,1,285.81
1,easy,183,6,0,397.72
1,easy,183,7,1,495.46
1,easy,183,8,0,325.802
1,easy,183,9,1,677.248
1,easy,183,10,0,342.249
1,easy,184,1,1,569.035
1,easy,184,2,0,245.717
1,easy,184,3,0,363.853
1,easy,184,4,1,207.253
1,easy,184,5,1,247.677
1,easy,184,6,0,374.85
1,easy,184,7,1,574.249
1,easy,184,8,0,353.024
1,easy,184,9,0,795.17
1,easy,184,10,1,302.192
1,easy,185,1,1,537.162
1,easy,185,2,0,234.341
1,easy,185,3,0,345.642
1,easy,185,4,1,210.591
1,easy,185,5,0,316.307
1,easy,185,6,0,384.805
1,easy,185,7,1,511.194
1,easy,185,8,0,356.173
1,easy,185,9,1,639.723
1,easy,185,10,1,300.32
1,easy,186,1,0,711.823
1,easy,186,2,0,245.907
1,easy,186,3,0,361.915
1,easy,186,4,1,206.516
1,easy,186,5,1,261.748
1,easy,186,6,0,397.714
1,easy,186,7,0,673.449
1,easy,186,8,0,325.033
1,easy,186,9,1,689.803
1,easy,186,10,1,288.273
1,easy,187,1,1,572.487
1,easy,187,2,0,211.512
1,easy,187,3,1,283.048
1,easy,187,4,0,258.861
1,easy,187,5,1,262.26
1,easy,187,6,1,325.505
1,easy,187,7,0,608.342
1,easy,187,8,0,328.219
1,easy,187,9,1,659.477
1,easy,187,10,0,363.992
1,easy,188,1,1,596.67
1,easy,188,2,0,241.214
1,easy,188,3,0,344.277
1,easy,188,4,0,244.429
1,easy,188,5,0,314.992
1,easy,188,6,0,368.751
1,easy,188,7,0,648.146
1,easy,188,8,0,337.805
1,easy,188,9,1,627.952
1,easy,188,10,0,376.162
1,easy,189,1,1,508.893
1,easy,189,2,0,202.557
1,easy,189,3,1,271.354
1,easy,189,4,1,217.132
1,easy,189,5,1,265.089
1,easy,189,6,0,375.36
1,easy,189,7,1,519.657
1,easy,189,8,0,330.929
1,easy,189,9,1,697.979
1,easy,189,10,1,289.369
1,easy,190,1,1,583.827
1,easy,190,2,0,222.748
1,easy,190,3,0,331.026
1,easy,190,4,0,251.48
1,easy,190,5,0,340.085
1,easy,190,6,0,374.45
1,easy,190,7,1,560.002
1,easy,190,8,0,341.949
1,easy,190,9,0,846.065
1,easy,190,10,0,380.054
1,easy,191,1,0,690.406
1,easy,191,2,0,232.174
1,easy,191,3,1,309.451
1,easy,191,4,0,253.116
1,easy,191,5,1,275.382
1,easy,191,6,0,375.83
1,easy,191,7,1,548.092
1,easy,191,8,0,333.402
1,easy,191,9,1,628.172
1,easy,191,10,1,293.974
1,easy,192,1,1,550.506
1,easy,192,2,0,231.853
1,easy,192,3,0,365.094
1,easy,192,4,0,259.811
1,easy,192,5,1,261.962
1,easy,192,6,0,389.988
1,easy,192,7,1,501.505
1,easy,192,8,0,360.218
1,easy,192,9,1,653.133
1,easy,192,10,1,283.548
1,easy,193,1,1,535.84
1,easy,193,2,0,244.22
1,easy,193,3,1,287.154
1,easy,193,4,0,254.643
1,easy,193,5,1,262.118
1,easy,193,6,0,423.937
1,easy,193,7,0,608.522
1,easy,193,8,0,341.627
1,easy,193,9,1,628.683
1,easy,193,10,0,358.45
1,easy,194,1,1,553.814
1,easy,194,2,0,245.142
1,easy,194,3,0,374.372
1,easy,194,4,0,267.915
1,easy,194,5,1,265.47
1,easy,194,6,1,277.368
1,easy,194,7,1,508.837
1,easy,194,8,0,333.755
1,easy,194,9,1,711.68
1,easy,194,10,1,290.088
1,easy,195,1,0,704.975
1,easy,195,2,0,236.882
1,easy,195,3,1,297.205
1,easy,195,4,1,220.196
1,easy,195,5,1,265.376
1,easy,195,6,0,374.715
1,easy,195,7,1,526.166
1,easy,195,8,0,344.559
1,easy,195,9,0,819.137
1,easy,195,10,0,356.356
1,easy,196,1,1,568.971
1,easy,196,2,0,212.896
1,easy,196,3,0,343.103
1,easy,196,4,0,265.208
1,easy,196,5,0,355.265
1,easy,196,6,1,302.444
1,easy,196,7,0,643.116
1,easy,196,8,0,353.49
1,easy,196,9,1,637.451
1,easy,196,10,0,385.218
1,easy,197,1,1,536.167
1,easy,197,2,0,231.656
1,easy,197,3,1,272.709
1,easy,197,4,0,276.645
1,easy,197,5,1,272.566
1,easy,197,6,0,379.276
1,easy,197,7,1,569.058
1,easy,197,8,0,318.499
1,easy,197,9,1,642.77
1,easy,197,10,1,278.377
1,easy,198,1,1,600.155
1,easy,198,2,0,219.385
1,easy,198,3,0,341.177
1,easy,198,4,1,213.397
1,easy,198,5,1,286.589
1,easy,198,6,0,352.507
1,easy,198,7,1,540.954
1,easy,198,8,0,345.431
1,easy,198,9,0,893.205
1,easy,198,10,1,296.195
1,easy,199,1,1,573.946
1,easy,199,2,0,258.911
1,easy,199,3,1,300.523
1,easy,199,4,1,210.495
1,easy,199,5,0,325.769
1,easy,199,6,0,366.959
1,easy,199,7,0,639.88
1,easy,199,8,0,337.063
1,easy,199,9,0,822.685
1,easy,199,10,0,370.105
1,easy,200,1,1,549.451
1,easy,200,2,0,233.107
1,easy,200,3,1,284.83
1,easy,200,4,1,204.93
1,easy,200,5,1,289.253
1,easy,200,6,1,306.48
1,easy,200,7,0,645.265
1,easy,200,8,0,400.93
1,easy,200,9,1,723.361
1,easy,200,10,0,358.234
1,easy,201,1,1,546.359
1,easy,201,2,0,234.089
1,easy,201,3,0,341.75
1,easy,201,4,0,251.652
1,easy,201,5,1,250.901
1,easy,201,6,1,326.588
1,easy,201,7,1,510.788
1,easy,201,8,0,307.208
1,easy,201,9,1,672.856
1,easy,201,10,0,369.535
1,easy,202,1,1,587.339
1,easy,202,2,0,240.682
1,easy,202,3,1,276.326
1,easy,202,4,1,211.664
1,easy,202,5,1,247.973
1,easy,202,6,0,401.405
1,easy,202,7,1,514.233
1,easy,202,8,0,321
1,easy,202,9,0,783.029
1,easy,202,10,1,304.665
1,easy,203,1,1,501.933
1,easy,203,2,0,227.223
1,easy,203,3,1,286.097
1,easy,203,4,1,214.771
1,easy,203,5,1,252.851
1,easy,203,6,0,381.537
1,easy,203,7,1,585.27
1,easy,203,8,0,328.882
1,easy,203,9,1,696.976
1,easy,203,10,0,331.645
1,easy,204,1,1,549.133
1,easy,204,2,0,232.265
1,easy,204,3,0,349.913
1,easy,204,4,1,194.635
1,easy,204,5,0,333.841
1,easy,204,6,0,381.716
1,easy,204,7,0,655.084
1,easy,204,8,0,331.639
1,easy,204,9,1,685.925
1,easy,204,10,1,260.527
1,easy,205,1,1,580.99
1,easy,205,2,0,228.616
1,easy,205,3,0,344.055
1,easy,205,4,1,215.791
1,easy,205,5,0,345.733
1,easy,205,6,0,376.851
1,easy,205,7,0,625.32
1,easy,205,8,1,262.516
1,easy,205,9,1,651.809
1,easy,205,10,0,365.514
1,easy,206,1,0,636.511
1,easy,206,2,0,220.843
1,easy,206,3,0,367.261
1,easy,206,4,0,231.969
1,easy,206,5,0,329.791
1,easy,206,6,0,417.24
1,easy,206,7,1,530.83
1,easy,206,8,1,271.537
1,easy,206,9,1,613.37
1,easy,206,10,0,358.657
1,easy,207,1,1,547.315
1,easy,207,2,0,242.722
1,easy,207,3,0,323.115
1,easy,207,4,0,263.476
1,easy,207,5,0,317.727
1,easy,207,6,0,376.724
1,easy,207,7,0,680.645
1,easy,207,8,0,356.553
1,easy,207,9,1,599.506
1,easy,207,10,0,347.6
1,easy,208,1,0,657.513
1,easy,208,2,0,248.892
1,easy,208,3,1,296.654
1,easy,208,4,1,207.115
1,easy,208,5,1,275.716
1,easy,208,6,0,347.236
1,easy,208,7,1,572.798
1,easy,208,8,0,316.297
1,easy,208,9,1,651.69
1,easy,208,10,0,337.767
1,easy,209,1,1,591.682
1,easy,209,2,0,253.253
1,easy,209,3,0,386.291
1,easy,209,4,1,208.032
1,easy,209,5,1,241.781
1,easy,209,6,0,376.2
1,easy,209,7,1,546.38
1,easy,209,8,0,343.282
1,easy,209,9,1,624.257
1,easy,209,10,1,288.269
1,easy,210,1,1,536.323
1,easy,210,2,0,222.093
1,easy,210,3,1,295.167
1,easy,210,4,1,192.998
1,easy,210,5,0,319.228
1,easy,210,6,0,391.269
1,easy,210,7,1,542.492
1,easy,210,8,0,328.594
1,easy,210,9,1,684.679
1,easy,210,10,1,307.999
1,easy,211,1,0,706.945
1,easy,211,2,0,221.172
1,easy,211,3,0,337.978
1,easy,211,4,1,195.574
1,easy,211,5,1,236.168
1,easy,211,6,0,402.296
1,easy,211,7,1,569.35
1,easy,211,8,0,323.6
1,easy,211,9,1,719.173
1,easy,211,10,0,360.516
1,easy,212,1,1,605.145
1,easy,212,2,0,245.554
1,easy,212,3,0,369.503
1,easy,212,4,0,260.249
1,easy,212,5,1,268.534
1,easy,212,6,0,387.139
1,easy,212,7,1,575.978
1,easy,212,8,0,343.286
1,easy,212,9,1,651.206
1,easy,212,10,1,283.189
1,easy,213,1,1,567.722
1,easy,213,2,1,186.764
1,easy,213,3,0,329.173
1,easy,213,4,1,215.204
1,easy,213,5,1,273.18
1,easy,213,6,1,283.655
1,easy,213,7,1,583.668
1,easy,213,8,0,357.511
1,easy,213,9,0,925.954
1,easy,213,10,1,293.047
1,easy,214,1,1,543.108
1,easy,214,2,0,251.71
1,easy,214,3,1,280.047
1,easy,214,4,0,242.557
1,easy,214,5,1,251.701
1,easy,214,6,0,393.677
1,easy,214,7,1,519.819
1,easy,214,8,0,362.259
1,easy,214,9,0,865.883
1,easy,214,10,1,286.13
1,easy,215,1,1,580.794
1,easy,215,2,1,200.518
1,easy,215,3,0,357.708
1,easy,215,4,1,202.031
1,easy,215,5,1,259.194
1,easy,215,6,0,368.658
1,easy,215,7,1,523.9
1,easy,215,8,0,333.023
1,easy,215,9,1,613.933
1,easy,215,10,0,355.921
1,easy,216,1,1,593.614
1,easy,216,2,1,169.362
1,easy,216,3,1,298.686
1,easy,216,4,0,257.609
1,easy,216,5,0,337.375
1,easy,216,6,1,320.418
1,easy,216,7,1,541.374
1,easy,216,8,0,359.486
1,easy,216,9,0,845.547
1,easy,216,10,1,271.733
1,easy,217,1,1,518.093
1,easy,217,2,0,209.363
1,easy,217,3,0,351.27
1,easy,217,4,0,268.205
1,easy,217,5,1,261.555
1,easy,217,6,0,385.366
1,easy,217,7,1,528.837
1,easy,217,8,0,337.426
1,easy,217,9,1,682.577
1,easy,217,10,1,293.079
1,easy,218,1,1,636.779
1,easy,218,2,1,198.361
1,easy,218,3,1,291.173
1,easy,218,4,1,199.34
1,easy,218,5,0,327.695
1,easy,218,6,1,290.278
1,easy,218,7,1,563.755
1,easy,218,8,0,337.338
1,easy,218,9,1,657.015
1,easy,218,10,1,287.214
1,easy,219,1,1,585.891
1,easy,219,2,0,232.98
1,easy,219,3,1,312.909
1,easy,219,4,0,269.657
1,easy,219,5,0,316.437
1,easy,219,6,0,399.408
1,easy,219,7,1,528.416
1,easy,219,8,0,333.617
1,easy,219,9,0,807.139
1,easy,219,10,0,355.987
1,easy,220,1,1,510.25
1,easy,220,2,0,250.966
1,easy,220,3,0,378.399
1,easy,220,4,0,252.005
1,easy,220,5,1,274.256
1,easy,220,6,0,378.303
1,easy,220,7,1,546.42
1,easy,220,8,0,343.386
1,easy,220,9,0,825.995
1,easy,220,10,1,278.003
1,easy,221,1,1,491.783
1,easy,221,2,0,222.52
1,easy,221,3,0,406.214
1,easy,221,4,1,218.062
1,easy,221,5,1,284.661
1,easy,221,6,0,361.261
1,easy,221,7,1,508.158
1,easy,221,8,0,324.801
1,easy,221,9,1,650.687
1,easy,221,10,1,273.124
1,easy,222,1,1,619.851
1,easy,222,2,1,177.192
1,easy,222,3,1,284.388
1,easy,222,4,1,214.854
1,easy,222,5,0,313.453
1,easy,222,6,0,374.676
1,easy,222,7,1,528.617
1,easy,222,8,0,360.418
1,easy,222,9,1,662.16
1,easy,222,10,1,316.433
1,easy,223,1,1,535.034
1,easy,223,2,1,178.239
1,easy,223,3,0,341.294
1,easy,223,4,1,209.63
1,easy,223,5,1,266.799
1,easy,223,6,0,401.287
1,easy,223,7,1,520.713
1,easy,223,8,0,323.683
1,easy,223,9,1,674.297
1,easy,223,10,1,283.064
1,easy,224,1,1,579.926
1,easy,224,2,0,238.327
1,easy,224,3,0,354.725
1,easy,224,4,1,200.059
1,easy,224,5,1,255.139
1,easy,224,6,1,318.036
1,easy,224,7,1,561.065
1,easy,224,8,0,323.914
1,easy,224,9,1,645.361
1,easy,224,10,1,285.969
1,easy,225,1,1,567.697
1,easy,225,2,0,225.816
1,easy,225,3,0,341.331
1,easy,225,4,1,236.584
1,easy,225,5,1,255.88
1,easy,225,6,0,386.608
1,easy,225,7,1,530.154
1,easy,225,8,0,340.818
1,easy,225,9,1,693.898
1,easy,225,10,1,289.253
1,easy,226,1,1,550.6
1,easy,226,2,0,256.724
1,easy,226,3,0,354.133
1,easy,226,4,1,215.194
1,easy,226,5,0,308.536
1,easy,226,6,0,349.228
1,easy,226,7,1,546.917
1,easy,226,8,0,358.221
1,easy,226,9,0,785.882
1,easy,226,10,0,362.458
1,easy,227,1,1,555.605
1,easy,227,2,0,241.18
1,easy,227,3,0,330.484
1,easy,227,4,1,213.475
1,easy,227,5,1,282.417
1,easy,227,6,0,381.047
1,easy,227,7,0,688.769
1,easy,227,8,0,327.778
1,easy,227,9,0,778.013
1,easy,227,10,0,307.59
1,easy,228,1,1,541.348
1,easy,228,2,1,190.061
1,easy,228,3,0,338.129
1,easy,228,4,1,205.529
1,easy,228,5,1,260.223
1,easy,228,6,0,405.175
1,easy,228,7,1,555.575
1,easy,228,8,0,334.819
1,easy,228,9,1,670.202
1,easy,228,10,1,297.47
1,easy,229,1,1,517.242
1,easy,229,2,0,244.073
1,easy,229,3,1,265.283
1,easy,229,4,1,207.082
1,easy,229,5,1,276.355
1,easy,229,6,0,393.009
1,easy,229,7,1,558.655
1,easy,229,8,0,339.029
1,easy,229,9,1,644.491
1,easy,229,10,0,363.53
1,easy,230,1,1,590.027
1,easy,230,2,0,244.878
1,easy,230,3,1,299.335
1,easy,230,4,1,227.424
1,easy,230,5,0,354.395
1,easy,230,6,0,373.726
1,easy,230,7,0,663.012
1,easy,230,8,1,260.153
1,easy,230,9,0,729.416
1,easy,230,10,1,271.957
1,easy,231,1,1,540.297
1,easy,231,2,0,227.616
1,easy,231,3,1,309.927
1,easy,231,4,0,227.086
1,easy,231,5,1,281.251
1,easy,231,6,0,366.047
1,easy,231,7,1,546.977
1,easy,231,8,1,284.757
1,easy,231,9,1,697.176
1,easy,231,10,1,283.939
1,easy,232,1,1,584.605
1,easy,232,2,0,239.476
1,easy,232,3,1,299.102
1,easy,232,4,0,250.595
1,easy,232,5,0,346.237
1,easy,232,6,0,359.228
1,easy,232,7,1,531.687
1,easy,232,8,0,336.599
1,easy,232,9,1,679.995
1,easy,232,10,0,367.736
1,easy,233,1,1,571.188
1,easy,233,2,1,199.603
1,easy,233,3,0,390.473
1,easy,233,4,0,249.198
1,easy,233,5,0,298.276
1,easy,233,6,0,343.583
1,easy,233,7,1,510.27
1,easy,233,8,0,361.484
1,easy,233,9,1,703.089
1,easy,233,10,1,289.681
1,easy,234,1,1,512.608
1,easy,234,2,1,188.073
1,easy,234,3,1,300.599
1,easy,234,4,0,255.291
1,easy,234,5,1,287.331
1,easy,234,6,0,390.304
1,easy,234,7,1,530.063
1,easy,234,8,0,327.543
1,easy,234,9,1,653.263
1,easy,234,10,1,280.335
1,easy,235,1,1,604.942
1,easy,235,2,0,235.904
1,easy,235,3,0,386.222
1,easy,235,4,1,211.444
1,easy,235,5,1,254.973
1,easy,235,6,0,339.959
1,easy,235,7,0,696.532
1,easy,235,8,0,311.663
1,easy,235,9,1,718.467
1,easy,235,10,1,288.279
1,easy,236,1,1,573.942
1,easy,236,2,0,207.909
1,easy,236,3,0,369.219
1,easy,236,4,0,278.712
1,easy,236,5,1,271.948
1,easy,236,6,0,403.943
1,easy,236,7,1,541.422
1,easy,236,8,0,336.302
1,easy,236,9,1,680.66
1,easy,236,10,1,326.873
1,easy,237,1,1,569.796
1,easy,237,2,1,202.375
1,easy,237,3,1,266.676
1,easy,237,4,0,264.681
1,easy,237,5,0,329.354
1,easy,237,6,0,371.404
1,easy,237,7,0,630.069
1,easy,237,8,0,360.709
1,easy,237,9,1,631.305
1,easy,237,10,1,282.649
1,easy,238,1,0,654.6
1,easy,238,2,0,261.882
1,easy,238,3,1,270.3
1,easy,238,4,1,204.943
1,easy,238,5,1,259.532
1,easy,238,6,1,265.7
1,easy,238,7,1,523.389
1,easy,238,8,0,354.367
1,easy,238,9,1,743.136
1,easy,238,10,0,384.336
1,easy,239,1,1,548.876
1,easy,239,2,0,236.745
1,easy,239,3,1,312.128
1,easy,239,4,0,230.699
1,easy,239,5,0,315.207
1,easy,239,6,0,354.039
1,easy,239,7,1,487.572
1,easy,239,8,0,341.542
1,easy,239,9,1,733.061
1,easy,239,10,1,286.122
1,easy,240,1,1,573.412
1,easy,240,2,0,230.087
1,easy,240,3,0,326.931
1,easy,240,4,1,209.555
1,easy,240,5,0,340.317
1,easy,240,6,0,381.083
1,easy,240,7,1,606.809
1,easy,240,8,0,316.329
1,easy,240,9,1,608.131
1,easy,240,10,1,317.664
1,hard,1,1,1,790.239
1,hard,1,2,1,280.724
1,hard,1,3,1,374.479
1,hard,1,4,1,309.342
1,hard,1,5,1,362.014
1,hard,1,6,0,503.563
1,hard,1,7,1,767.697
1,hard,1,8,1,395.322
1,hard,1,9,0,1057.75
1,hard,1,10,1,415.267
1,hard,2,1,1,773.783
1,hard,2,2,0,333.064
1,hard,2,3,0,488.473
1,hard,2,4,1,297.498
1,hard,2,5,1,381.381
1,hard,2,6,0,565.99
1,hard,2,7,0,925.763
1,hard,2,8,0,475.398
1,hard,2,9,1,858.829
1,hard,2,10,0,518.495
1,hard,3,1,1,824.851
1,hard,3,2,0,306.464
1,hard,3,3,1,410.486
1,hard,3,4,0,349.391
1,hard,3,5,0,463.704
1,hard,3,6,1,389.74
1,hard,3,7,1,724.328
1,hard,3,8,0,453.915
1,hard,3,9,1,917.876
1,hard,3,10,1,392.564
1,hard,4,1,1,800.141
1,hard,4,2,0,338.796
1,hard,4,3,0,501.788
1,hard,4,4,1,287.001
1,hard,4,5,0,487.858
1,hard,4,6,1,425.21
1,hard,4,7,0,847.61
1,hard,4,8,0,430.784
1,hard,4,9,1,900.696
1,hard,4,10,0,504.204
1,hard,5,1,1,792.925
1,hard,5,2,0,310.319
1,hard,5,3,1,431.795
1,hard,5,4,0,400.538
1,hard,5,5,0,454.98
1,hard,5,6,1,434.233
1,hard,5,7,1,738.902
1,hard,5,8,0,454.656
1,hard,5,9,1,996.733
1,hard,5,10,0,479.914
1,hard,6,1,1,784.597
1,hard,6,2,0,326.233
1,hard,6,3,0,455.596
1,hard,6,4,0,336.827
1,hard,6,5,1,383.09
1,hard,6,6,0,516.48
1,hard,6,7,0,945.902
1,hard,6,8,0,487.183
1,hard,6,9,0,1028.316
1,hard,6,10,0,544.027
1,hard,7,1,1,875.944
1,hard,7,2,0,326.615
1,hard,7,3,1,409.236
1,hard,7,4,0,354.798
1,hard,7,5,0,452.428
1,hard,7,6,0,520.897
1,hard,7,7,0,874.29
1,hard,7,8,0,462.308
1,hard,7,9,1,977.305
1,hard,7,10,0,532.954
1,hard,8,1,1,805.621
1,hard,8,2,0,310.143
1,hard,8,3,0,509.376
1,hard,8,4,0,349.078
1,hard,8,5,0,457.095
1,hard,8,6,0,502.736
1,hard,8,7,1,730.799
1,hard,8,8,0,499.09
1,hard,8,9,1,968.002
1,hard,8,10,1,421.074
1,hard,9,1,1,778.233
1,hard,9,2,0,336.311
1,hard,9,3,1,384.569
1,hard,9,4,1,289.394
1,hard,9,5,1,371.75
1,hard,9,6,0,517.795
1,hard,9,7,1,692.63
1,hard,9,8,1,381.504
1,hard,9,9,1,898.76
1,hard,9,10,1,379.713
1,hard,10,1,1,780.558
1,hard,10,2,0,335.341
1,hard,10,3,0,435.729
1,hard,10,4,0,374.706
1,hard,10,5,1,364.981
1,hard,10,6,0,532.116
1,hard,10,7,1,787.338
1,hard,10,8,0,482.278
1,hard,10,9,1,864.9
1,hard,10,10,0,529.415
1,hard,11,1,1,797.859
1,hard,11,2,0,334.957
1,hard,11,3,0,475.435
1,hard,11,4,1,294.914
1,hard,11,5,0,504.331
1,hard,11,6,1,448.21
1,hard,11,7,1,769.787
1,hard,11,8,0,461.197
1,hard,11,9,1,916.022
1,hard,11,10,0,538.681
1,hard,12,1,1,793.795
1,hard,12,2,0,322.963
1,hard,12,3,0,497.271
1,hard,12,4,0,351.879
1,hard,12,5,1,361.113
1,hard,12,6,0,545.818
1,hard,12,7,1,680.121
1,hard,12,8,0,461.488
1,hard,12,9,1,994.513
1,hard,12,10,1,385.202
1,hard,13,1,1,842.274
1,hard,13,2,0,360.089
1,hard,13,3,0,482.739
1,hard,13,4,1,310.175
1,hard,13,5,1,375.414
1,hard,13,6,0,583.181
1,hard,13,7,1,701.429
1,hard,13,8,0,485.799
1,hard,13,9,0,1051.742
1,hard,13,10,1,403.161
1,hard,14,1,1,811.149
1,hard,14,2,0,330.714
1,hard,14,3,0,446.322
1,hard,14,4,0,343.986
1,hard,14,5,0,442.898
1,hard,14,6,0,516.731
1,hard,14,7,0,912.584
1,hard,14,8,0,484.518
1,hard,14,9,1,942.903
1,hard,14,10,1,413.315
1,hard,15,1,1,705.923
1,hard,15,2,0,297.863
1,hard,15,3,0,494.44
1,hard,15,4,1,295.258
1,hard,15,5,1,373.147
1,hard,15,6,0,507.2
1,hard,15,7,1,725.718
1,hard,15,8,0,455.659
1,hard,15,9,1,938.054
1,hard,15,10,1,395.914
1,hard,16,1,0,900.471
1,hard,16,2,0,315.208
1,hard,16,3,0,485.5
1,hard,16,4,0,357.91
1,hard,16,5,1,351.194
1,hard,16,6,0,511.246
1,hard,16,7,1,694.844
1,hard,16,8,0,436.639
1,hard,16,9,1,900.974
1,hard,16,10,1,413.202
1,hard,17,1,1,850.412
1,hard,17,2,0,301.165
1,hard,17,3,1,397.544
1,hard,17,4,1,284.645
1,hard,17,5,1,366.265
1,hard,17,6,0,554.135
1,hard,17,7,1,711.831
1,hard,17,8,0,502.758
1,hard,17,9,1,935.171
1,hard,17,10,0,451.609
1,hard,18,1,1,913.737
1,hard,18,2,0,326.673
1,hard,18,3,1,396.646
1,hard,18,4,0,354.34
1,hard,18,5,1,360.159
1,hard,18,6,0,497.826
1,hard,18,7,0,906.221
1,hard,18,8,1,376.153
1,hard,18,9,0,1111.454
1,hard,18,10,1,375.546
1,hard,19,1,1,787.08
1,hard,19,2,0,356.638
1,hard,19,3,1,406.336
1,hard,19,4,1,288.556
1,hard,19,5,0,474.543
1,hard,19,6,0,507.728
1,hard,19,7,1,722.631
1,hard,19,8,0,482.332
1,hard,19,9,1,876.095
1,hard,19,10,1,395.465
1,hard,20,1,1,772.026
1,hard,20,2,1,279.763
1,hard,20,3,1,391.294
1,hard,20,4,1,272.911
1,hard,20,5,1,345.588
1,hard,20,6,0,492.562
1,hard,20,7,0,936.477
1,hard,20,8,0,451.382
1,hard,20,9,0,1135.01
1,hard,20,10,1,390.217
1,hard,21,1,1,774.12
1,hard,21,2,0,307.96
1,hard,21,3,1,388.639
1,hard,21,4,0,339.94
1,hard,21,5,1,352.039
1,hard,21,6,0,537.632
1,hard,21,7,0,905.757
1,hard,21,8,0,454.623
1,hard,21,9,0,1096.815
1,hard,21,10,1,422.192
1,hard,22,1,1,794.406
1,hard,22,2,0,358.018
1,hard,22,3,0,487.877
1,hard,22,4,1,306.667
1,hard,22,5,1,371.909
1,hard,22,6,0,488.084
1,hard,22,7,0,915.896
1,hard,22,8,0,496.516
1,hard,22,9,0,1174.839
1,hard,22,10,0,505.382
1,hard,23,1,1,807.358
1,hard,23,2,1,247.116
1,hard,23,3,1,404.984
1,hard,23,4,1,322.558
1,hard,23,5,1,384.779
1,hard,23,6,0,566.912
1,hard,23,7,1,813.151
1,hard,23,8,0,465.375
1,hard,23,9,1,931.315
1,hard,23,10,0,544.004
1,hard,24,1,1,746.116
1,hard,24,2,0,313.216
1,hard,24,3,0,483.18
1,hard,24,4,0,368.053
1,hard,24,5,0,448.005
1,hard,24,6,0,531.632
1,hard,24,7,1,706.395
1,hard,24,8,0,474.132
1,hard,24,9,1,850.973
1,hard,24,10,1,424.156
1,hard,25,1,1,819.467
1,hard,25,2,0,297.913
1,hard,25,3,1,403.515
1,hard,25,4,0,386.215
1,hard,25,5,0,461.51
1,hard,25,6,1,422.996
1,hard,25,7,0,940.595
1,hard,25,8,0,476.502
1,hard,25,9,1,891.668
1,hard,25,10,0,497.609
1,hard,26,1,1,762.042
1,hard,26,2,0,324.636
1,hard,26,3,0,526.601
1,hard,26,4,0,349.892
1,hard,26,5,1,375.517
1,hard,26,6,0,557.925
1,hard,26,7,1,722.499
1,hard,26,8,1,354.176
1,hard,26,9,1,919.873
1,hard,26,10,0,527.874
1,hard,27,1,1,774.37
1,hard,27,2,1,268.774
1,hard,27,3,1,421.922
1,hard,27,4,1,271.027
1,hard,27,5,0,469.509
1,hard,27,6,0,505.005
1,hard,27,7,0,852.41
1,hard,27,8,0,474.136
1,hard,27,9,0,1053.454
1,hard,27,10,0,456.466
1,hard,28,1,0,928.729
1,hard,28,2,0,323.106
1,hard,28,3,0,524.117
1,hard,28,4,1,275.057
1,hard,28,5,1,343.548
1,hard,28,6,0,465.924
1,hard,28,7,0,867.126
1,hard,28,8,0,473.868
1,hard,28,9,1,868.633
1,hard,28,10,1,402.772
1,hard,29,1,1,740.508
1,hard,29,2,0,341.698
1,hard,29,3,1,432.304
1,hard,29,4,1,316.671
1,hard,29,5,0,430.083
1,hard,29,6,0,490.881
1,hard,29,7,0,816.961
1,hard,29,8,0,462.367
1,hard,29,9,1,957.799
1,hard,29,10,0,508.226
1,hard,30,1,1,759.453
1,hard,30,2,0,324.121
1,hard,30,3,0,459.275
1,hard,30,4,0,328.911
1,hard,30,5,0,424.897
1,hard,30,6,1,451.466
1,hard,30,7,1,712.008
1,hard,30,8,0,470.072
1,hard,30,9,1,880.692
1,hard,30,10,1,388.763
1,hard,31,1,1,738.757
1,hard,31,2,0,334.809
1,hard,31,3,0,504.389
1,hard,31,4,1,288.698
1,hard,31,5,0,472.731
1,hard,31,6,0,508.431
1,hard,31,7,1,770.792
1,hard,31,8,0,467.264
1,hard,31,9,0,1118.798
1,hard,31,10,1,404.158
1,hard,32,1,1,832.007
1,hard,32,2,0,307.579
1,hard,32,3,1,373.104
1,hard,32,4,1,287.752
1,hard,32,5,0,484.356
1,hard,32,6,0,502.469
1,hard,32,7,1,758.052
1,hard,32,8,0,490.765
1,hard,32,9,1,972.511
1,hard,32,10,1,368.097
1,hard,33,1,1,744.794
1,hard,33,2,1,260.611
1,hard,33,3,1,397.182
1,hard,33,4,0,354.238
1,hard,33,5,1,349.208
1,hard,33,6,0,565.257
1,hard,33,7,0,881.517
1,hard,33,8,0,487.225
1,hard,33,9,1,931.629
1,hard,33,10,1,412.13
1,hard,34,1,1,768.001
1,hard,34,2,0,331.882
1,hard,34,3,0,510.6
1,hard,34,4,1,274.105
1,hard,34,5,0,460.695
1,hard,34,6,0,566.019
1,hard,34,7,0,878.109
1,hard,34,8,0,439.881
1,hard,34,9,1,984.175
1,hard,34,10,1,424.042
1,hard,35,1,1,783.173
1,hard,35,2,0,310.209
1,hard,35,3,0,520.715
1,hard,35,4,0,315.907
1,hard,35,5,1,410.949
1,hard,35,6,0,536.136
1,hard,35,7,0,807.231
1,hard,35,8,0,481.41
1,hard,35,9,1,902.081
1,hard,35,10,0,523.478
1,hard,36,1,1,753.342
1,hard,36,2,0,348.548
1,hard,36,3,1,390.541
1,hard,36,4,0,374.683
1,hard,36,5,1,374.274
1,hard,36,6,0,525.352
1,hard,36,7,1,662.412
1,hard,36,8,0,464.837
1,hard,36,9,1,902.48
1,hard,36,10,0,538.48
1,hard,37,1,1,759.544
1,hard,37,2,0,306.497
1,hard,37,3,0,503.501
1,hard,37,4,0,339.084
1,hard,37,5,1,377.537
1,hard,37,6,0,538.259
1,hard,37,7,1,744.108
1,hard,37,8,0,406.659
1,hard,37,9,0,1164.443
1,hard,37,10,1,413.1
1,hard,38,1,0,987.639
1,hard,38,2,0,338.807
1,hard,38,3,1,383.176
1,hard,38,4,1,288.284
1,hard,38,5,0,464.663
1,hard,38,6,0,486.394
1,hard,38,7,1,809.553
1,hard,38,8,0,454.654
1,hard,38,9,1,879.92
1,hard,38,10,0,487.226
1,hard,39,1,1,785.406
1,hard,39,2,0,340.959
1,hard,39,3,1,387.691
1,hard,39,4,1,285.403
1,hard,39,5,1,387.705
1,hard,39,6,0,504.725
1,hard,39,7,1,753.665
1,hard,39,8,1,360.521
1,hard,39,9,1,925.113
1,hard,39,10,0,522.347
1,hard,40,1,1,756.42
1,hard,40,2,0,338.109
1,hard,40,3,0,477.367
1,hard,40,4,0,343.87
1,hard,40,5,1,389.569
1,hard,40,6,0,551.902
1,hard,40,7,1,738.835
1,hard,40,8,0,486.528
1,hard,40,9,1,951.221
1,hard,40,10,0,498.03
1,hard,41,1,1,764.902
1,hard,41,2,0,338.698
1,hard,41,3,1,390.474
1,hard,41,4,1,312.492
1,hard,41,5,1,367.18
1,hard,41,6,1,438.813
1,hard,41,7,0,979.35
1,hard,41,8,1,382.263
1,hard,41,9,1,941.866
1,hard,41,10,1,419.289
1,hard,42,1,1,792.093
1,hard,42,2,0,306.89
1,hard,42,3,1,385.81
1,hard,42,4,1,278.748
1,hard,42,5,0,460.887
1,hard,42,6,0,536.198
1,hard,42,7,1,764.739
1,hard,42,8,0,398.289
1,hard,42,9,1,938.784
1,hard,42,10,1,447.441
1,hard,43,1,1,767.271
1,hard,43,2,0,336.905
1,hard,43,3,0,536.949
1,hard,43,4,1,278.616
1,hard,43,5,0,481.949
1,hard,43,6,0,520.005
1,hard,43,7,0,956.075
1,hard,43,8,0,487.746
1,hard,43,9,0,1098.61
1,hard,43,10,0,518.371
1,hard,44,1,1,800.2
1,hard,44,2,0,299.14
1,hard,44,3,1,408.795
1,hard,44,4,0,383.599
1,hard,44,5,1,404.624
1,hard,44,6,0,505.691
1,hard,44,7,1,709.113
1,hard,44,8,0,461.587
1,hard,44,9,0,1135.246
1,hard,44,10,0,472.258
1,hard,45,1,1,805.552
1,hard,45,2,0,315.079
1,hard,45,3,1,397.918
1,hard,45,4,1,281.305
1,hard,45,5,1,364.114
1,hard,45,6,0,531.205
1,hard,45,7,1,703.986
1,hard,45,8,0,495.02
1,hard,45,9,1,925.963
1,hard,45,10,1,428.378
1,hard,46,1,1,778.421
1,hard,46,2,1,263.626
1,hard,46,3,0,533.364
1,hard,46,4,0,390.103
1,hard,46,5,1,385.408
1,hard,46,6,0,503.3
1,hard,46,7,0,856.055
1,hard,46,8,0,421.741
1,hard,46,9,0,1122.543
1,hard,46,10,0,504.315
1,hard,47,1,1,687.978
1,hard,47,2,0,318.621
1,hard,47,3,1,397.314
1,hard,47,4,1,310.288
1,hard,47,5,1,370.063
1,hard,47,6,0,570.167
1,hard,47,7,1,708.586
1,hard,47,8,0,513.819
1,hard,47,9,1,853.553
1,hard,47,10,1,441.606
1,hard,48,1,1,808.753
1,hard,48,2,0,326.736
1,hard,48,3,1,379.135
1,hard,48,4,1,315.439
1,hard,48,5,1,357.425
1,hard,48,6,0,490.191
1,hard,48,7,1,832.32
1,hard,48,8,0,471.934
1,hard,48,9,1,959.786
1,hard,48,10,1,412.118
1,hard,49,1,1,845.777
1,hard,49,2,0,321.125
1,hard,49,3,0,528.68
1,hard,49,4,1,293.809
1,hard,49,5,1,360.307
1,hard,49,6,0,562.757
1,hard,49,7,1,751.403
1,hard,49,8,0,501.193
1,hard,49,9,1,872.925
1,hard,49,10,1,400.744
1,hard,50,1,1,721.794
1,hard,50,2,0,339.464
1,hard,50,3,0,510.647
1,hard,50,4,1,296.526
1,hard,50,5,1,382.21
1,hard,50,6,0,504.745
1,hard,50,7,1,800.758
1,hard,50,8,0,446.285
1,hard,50,9,0,1060.628
1,hard,50,10,1,383.482
1,hard,51,1,1,827.783
1,hard,51,2,0,326.353
1,hard,51,3,1,393.531
1,hard,51,4,0,341.034
1,hard,51,5,1,404.17
1,hard,51,6,0,552.192
1,hard,51,7,1,768.545
1,hard,51,8,0,417.207
1,hard,51,9,1,1017.851
1,hard,51,10,0,510.247
1,hard,52,1,1,755.344
1,hard,52,2,0,309.892
1,hard,52,3,1,392.511
1,hard,52,4,1,313.02
1,hard,52,5,0,467.295
1,hard,52,6,0,517.948
1,hard,52,7,1,741.165
1,hard,52,8,0,468.304
1,hard,52,9,1,847.312
1,hard,52,10,1,423.029
1,hard,53,1,1,736.744
1,hard,53,2,0,330.055
1,hard,53,3,1,419.46
1,hard,53,4,0,331.241
1,hard,53,5,1,374.336
1,hard,53,6,0,504.048
1,hard,53,7,0,845.124
1,hard,53,8,0,486.154
1,hard,53,9,1,857.441
1,hard,53,10,0,519.45
1,hard,54,1,1,782.987
1,hard,54,2,1,257.981
1,hard,54,3,1,399.015
1,hard,54,4,0,347.881
1,hard,54,5,0,454.586
1,hard,54,6,1,457.542
1,hard,54,7,1,694.344
1,hard,54,8,0,471.6
1,hard,54,9,1,943.174
1,hard,54,10,1,390.801
1,hard,55,1,1,753.126
1,hard,55,2,0,325.91
1,hard,55,3,1,413.686
1,hard,55,4,0,324.093
1,hard,55,5,1,366.655
1,hard,55,6,1,421.542
1,hard,55,7,1,732.67
1,hard,55,8,0,431.394
1,hard,55,9,0,1205.937
1,hard,55,10,0,473.551
1,hard,56,1,0,963.554
1,hard,56,2,0,370.408
1,hard,56,3,0,469.158
1,hard,56,4,1,299.918
1,hard,56,5,1,392.657
1,hard,56,6,1,426.33
1,hard,56,7,0,814.575
1,hard,56,8,0,455.733
1,hard,56,9,0,1062.893
1,hard,56,10,0,510.66
1,hard,57,1,1,743.969
1,hard,57,2,0,332.111
1,hard,57,3,0,459.862
1,hard,57,4,0,321.95
1,hard,57,5,0,463.746
1,hard,57,6,1,437.035
1,hard,57,7,1,711.572
1,hard,57,8,0,526.482
1,hard,57,9,1,964.624
1,hard,57,10,1,435.259
1,hard,58,1,1,752.306
1,hard,58,2,0,333.171
1,hard,58,3,0,517.781
1,hard,58,4,0,346.565
1,hard,58,5,1,391.105
1,hard,58,6,0,551.526
1,hard,58,7,1,734.383
1,hard,58,8,0,456.448
1,hard,58,9,1,885.447
1,hard,58,10,0,493.415
1,hard,59,1,1,771.439
1,hard,59,2,0,310.505
1,hard,59,3,1,396.668
1,hard,59,4,0,338.046
1,hard,59,5,1,376.344
1,hard,59,6,0,525.955
1,hard,59,7,0,945.234
1,hard,59,8,0,457.258
1,hard,59,9,1,861.385
1,hard,59,10,0,518.127
1,hard,60,1,0,922.294
1,hard,60,2,0,346.769
1,hard,60,3,0,495.728
1,hard,60,4,1,277.839
1,hard,60,5,1,414.483
1,hard,60,6,0,518.786
1,hard,60,7,0,901.172
1,hard,60,8,0,457.933
1,hard,60,9,1,943.26
1,hard,60,10,0,529.142
1,hard,61,1,1,763.399
1,hard,61,2,0,346
1,hard,61,3,1,373.596
1,hard,61,4,1,313.408
1,hard,61,5,1,361.18
1,hard,61,6,1,413.602
1,hard,61,7,1,762.661
1,hard,61,8,0,463.316
1,hard,61,9,1,921.547
1,hard,61,10,1,410.214
1,hard,62,1,1,744.421
1,hard,62,2,0,317.776
1,hard,62,3,0,474.838
1,hard,62,4,0,368.194
1,hard,62,5,1,364.462
1,hard,62,6,0,495.98
1,hard,62,7,1,701.855
1,hard,62,8,0,491.105
1,hard,62,9,1,890.24
1,hard,62,10,1,377.928
1,hard,63,1,1,702.817
1,hard,63,2,1,270.914
1,hard,63,3,1,404.743
1,hard,63,4,0,336.854
1,hard,63,5,1,364.521
1,hard,63,6,1,455.859
1,hard,63,7,1,719.003
1,hard,63,8,0,504.298
1,hard,63,9,1,964.218
1,hard,63,10,1,395.042
1,hard,64,1,1,787.978
1,hard,64,2,0,312.435
1,hard,64,3,0,509.358
1,hard,64,4,1,275.254
1,hard,64,5,1,378.032
1,hard,64,6,0,490.556
1,hard,64,7,1,738.306
1,hard,64,8,0,431.263
1,hard,64,9,1,942.163
1,hard,64,10,1,386.572
1,hard,65,1,1,737.031
1,hard,65,2,0,312.513
1,hard,65,3,0,463.367
1,hard,65,4,0,375.94
1,hard,65,5,1,350.593
1,hard,65,6,1,437.722
1,hard,65,7,1,742.659
1,hard,65,8,0,420.67
1,hard,65,9,1,925.642
1,hard,65,10,0,494.246
1,hard,66,1,1,817.291
1,hard,66,2,0,314.076
1,hard,66,3,1,437.183
1,hard,66,4,1,290.528
1,hard,66,5,1,411.775
1,hard,66,6,0,523.79
1,hard,66,7,1,786.289
1,hard,66,8,0,460.485
1,hard,66,9,1,949.44
1,hard,66,10,0,513.051
1,hard,67,1,1,760.311
1,hard,67,2,0,333.132
1,hard,67,3,1,400.423
1,hard,67,4,1,287.894
1,hard,67,5,0,472.793
1,hard,67,6,0,504.997
1,hard,67,7,0,906.33
1,hard,67,8,0,493.778
1,hard,67,9,1,942.589
1,hard,67,10,0,533.012
1,hard,68,1,0,926.52
1,hard,68,2,1,265.593
1,hard,68,3,0,487.141
1,hard,68,4,1,305.692
1,hard,68,5,1,400.847
1,hard,68,6,0,513.61
1,hard,68,7,1,776.438
1,hard,68,8,0,430.337
1,hard,68,9,0,1060.295
1,hard,68,10,1,407.836
1,hard,69,1,0,920.926
1,hard,69,2,0,315.899
1,hard,69,3,1,443.351
1,hard,69,4,1,282.301
1,hard,69,5,0,474.946
1,hard,69,6,0,535.717
1,hard,69,7,1,807.695
1,hard,69,8,0,474.265
1,hard,69,9,1,936.891
1,hard,69,10,0,522.412
1,hard,70,1,1,807.651
1,hard,70,2,1,270.965
1,hard,70,3,0,521.184
1,hard,70,4,0,379.498
1,hard,70,5,0,443.828
1,hard,70,6,0,508.148
1,hard,70,7,1,717.945
1,hard,70,8,0,468.603
1,hard,70,9,0,1160.766
1,hard,70,10,1,417.857
1,hard,71,1,1,808.637
1,hard,71,2,0,332.289
1,hard,71,3,1,365.15
1,hard,71,4,0,365.256
1,hard,71,5,1,361.16
1,hard,71,6,0,563.319
1,hard,71,7,0,923.793
1,hard,71,8,1,376.128
1,hard,71,9,1,938.837
1,hard,71,10,1,382.069
1,hard,72,1,1,849.198
1,hard,72,2,0,306.183
1,hard,72,3,0,475.147
1,hard,72,4,0,356.465
1,hard,72,5,1,378.949
1,hard,72,6,0,501.3
1,hard,72,7,1,736.844
1,hard,72,8,1,356.008
1,hard,72,9,0,1044.271
1,hard,72,10,0,486.735
1,hard,73,1,1,748.987
1,hard,73,2,1,274.821
1,hard,73,3,0,521.903
1,hard,73,4,0,338.212
1,hard,73,5,0,469.17
1,hard,73,6,0,509.086
1,hard,73,7,0,941.101
1,hard,73,8,0,466.577
1,hard,73,9,0,1149.429
1,hard,73,10,0,484.077
1,hard,74,1,1,774.855
1,hard,74,2,0,326.282
1,hard,74,3,1,408.728
1,hard,74,4,1,319.645
1,hard,74,5,1,367.312
1,hard,74,6,0,520.588
1,hard,74,7,1,799.361
1,hard,74,8,0,522.074
1,hard,74,9,1,955.029
1,hard,74,10,0,481.834
1,hard,75,1,1,765.632
1,hard,75,2,0,307.589
1,hard,75,3,0,454.655
1,hard,75,4,0,361.417
1,hard,75,5,1,391.992
1,hard,75,6,1,413.082
1,hard,75,7,1,734.359
1,hard,75,8,0,423.141
1,hard,75,9,1,1014.693
1,hard,75,10,0,483.259
1,hard,76,1,1,814.986
1,hard,76,2,1,281.469
1,hard,76,3,1,397.323
1,hard,76,4,1,294.405
1,hard,76,5,1,374.369
1,hard,76,6,0,497.25
1,hard,76,7,1,774.09
1,hard,76,8,0,489.234
1,hard,76,9,1,824.721
1,hard,76,10,1,427.47
1,hard,77,1,1,787.93
1,hard,77,2,0,309.683
1,hard,77,3,0,516.277
1,hard,77,4,1,299.692
1,hard,77,5,1,355.791
1,hard,77,6,1,439.586
1,hard,77,7,1,811.249
1,hard,77,8,0,481.47
1,hard,77,9,0,1120.908
1,hard,77,10,1,429.578
1,hard,78,1,0,995.393
1,hard,78,2,0,312.113
1,hard,78,3,0,483.874
1,hard,78,4,1,310.79
1,hard,78,5,1,372.29
1,hard,78,6,1,444.519
1,hard,78,7,1,754.728
1,hard,78,8,0,473.257
1,hard,78,9,1,916.376
1,hard,78,10,0,484.677
1,hard,79,1,1,776.61
1,hard,79,2,0,325.513
1,hard,79,3,1,399.165
1,hard,79,4,1,287.347
1,hard,79,5,1,385.632
1,hard,79,6,0,519.419
1,hard,79,7,1,740.564
1,hard,79,8,0,468.415
1,hard,79,9,1,901.665
1,hard,79,10,0,512.823
1,hard,80,1,1,703.058
1,hard,80,2,0,304.757
1,hard,80,3,1,438.072
1,hard,80,4,1,278.843
1,hard,80,5,0,449.341
1,hard,80,6,0,555.39
1,hard,80,7,1,713.441
1,hard,80,8,0,416.095
1,hard,80,9,1,941.589
1,hard,80,10,0,494.147
1,hard,81,1,0,976.784
1,hard,81,2,0,324.09
1,hard,81,3,1,419.955
1,hard,81,4,1,285.272
1,hard,81,5,1,394.744
1,hard,81,6,1,414.75
1,hard,81,7,0,841.31
1,hard,81,8,0,478.707
1,hard,81,9,0,1127.39
1,hard,81,10,1,405.033
1,hard,82,1,1,784.914
1,hard,82,2,0,336.013
1,hard,82,3,1,414.851
1,hard,82,4,1,299.575
1,hard,82,5,0,467.045
1,hard,82,6,0,549.474
1,hard,82,7,1,685.485
1,hard,82,8,0,452.241
1,hard,82,9,1,843.522
1,hard,82,10,0,511.001
1,hard,83,1,1,742.171
1,hard,83,2,0,370.366
1,hard,83,3,1,401.005
1,hard,83,4,0,333.727
1,hard,83,5,1,381.307
1,hard,83,6,0,524.185
1,hard,83,7,1,717.718
1,hard,83,8,0,457.344
1,hard,83,9,1,964.381
1,hard,83,10,1,420.862
1,hard,84,1,0,903.017
1,hard,84,2,0,351.049
1,hard,84,3,1,376.361
1,hard,84,4,0,373.823
1,hard,84,5,1,374.686
1,hard,84,6,0,519.702
1,hard,84,7,0,994.33
1,hard,84,8,0,467.44
1,hard,84,9,1,954.944
1,hard,84,10,0,492.231
1,hard,85,1,1,777.697
1,hard,85,2,0,332.71
1,hard,85,3,0,467.324
1,hard,85,4,0,366.566
1,hard,85,5,0,464.774
1,hard,85,6,0,506.685
1,hard,85,7,1,856.588
1,hard,85,8,0,447.74
1,hard,85,9,0,1100.587
1,hard,85,10,1,406.46
1,hard,86,1,1,783.07
1,hard,86,2,0,317.532
1,hard,86,3,1,413.725
1,hard,86,4,0,377.456
1,hard,86,5,1,410.729
1,hard,86,6,0,524.388
1,hard,86,7,1,679.432
1,hard,86,8,0,447.191
1,hard,86,9,1,854.873
1,hard,86,10,0,489.339
1,hard,87,1,1,793.502
1,hard,87,2,0,371.945
1,hard,87,3,1,394.202
1,hard,87,4,1,269.457
1,hard,87,5,1,342.015
1,hard,87,6,0,509.456
1,hard,87,7,1,706.421
1,hard,87,8,0,452.617
1,hard,87,9,1,912.268
1,hard,87,10,0,503.195
1,hard,88,1,1,711.454
1,hard,88,2,0,326.083
1,hard,88,3,0,478.509
1,hard,88,4,1,288.275
1,hard,88,5,0,441.33
1,hard,88,6,0,530.03
1,hard,88,7,1,779.042
1,hard,88,8,1,408.286
1,hard,88,9,1,868.153
1,hard,88,10,1,408.672
1,hard,89,1,1,702.354
1,hard,89,2,0,312.644
1,hard,89,3,0,469.457
1,hard,89,4,1,309.754
1,hard,89,5,1,382.81
1,hard,89,6,0,540.751
1,hard,89,7,1,736.831
1,hard,89,8,0,449.418
1,hard,89,9,1,904.435
1,hard,89,10,1,408.008
1,hard,90,1,1,781.116
1,hard,90,2,0,333.39
1,hard,90,3,1,404.509
1,hard,90,4,0,353.129
1,hard,90,5,1,350.981
1,hard,90,6,0,528.525
1,hard,90,7,0,970.534
1,hard,90,8,0,461.455
1,hard,90,9,1,931.839
1,hard,90,10,1,385.4
1,hard,91,1,1,734.698
1,hard,91,2,1,263.766
1,hard,91,3,1,400.405
1,hard,91,4,0,340.021
1,hard,91,5,1,409.358
1,hard,91,6,0,519.752
1,hard,91,7,1,716.286
1,hard,91,8,0,515.466
1,hard,91,9,1,887.415
1,hard,91,10,1,429.526
1,hard,92,1,1,725.925
1,hard,92,2,0,311.278
1,hard,92,3,0,490.77
1,hard,92,4,0,339.392
1,hard,92,5,1,364.002
1,hard,92,6,0,546.922
1,hard,92,7,1,732.605
1,hard,92,8,0,478.671
1,hard,92,9,0,1044.082
1,hard,92,10,0,463.773
1,hard,93,1,1,747.262
1,hard,93,2,0,323.201
1,hard,93,3,0,496.507
1,hard,93,4,1,290.459
1,hard,93,5,0,455.421
1,hard,93,6,0,544.176
1,hard,93,7,1,693.602
1,hard,93,8,0,492.168
1,hard,93,9,1,982.951
1,hard,93,10,1,372.462
1,hard,94,1,1,832.268
1,hard,94,2,0,329.469
1,hard,94,3,1,412.051
1,hard,94,4,1,273.692
1,hard,94,5,0,441.74
1,hard,94,6,0,486.736
1,hard,94,7,1,777.347
1,hard,94,8,0,449.709
1,hard,94,9,1,956.731
1,hard,94,10,0,495.463
1,hard,95,1,1,789.435
1,hard,95,2,0,325.743
1,hard,95,3,1,393.249
1,hard,95,4,0,390.299
1,hard,95,5,0,484.269
1,hard,95,6,0,493.47
1,hard,95,7,1,765.906
1,hard,95,8,0,457.248
1,hard,95,9,1,976.04
1,hard,95,10,1,393.727
1,hard,96,1,1,778.676
1,hard,96,2,0,332.921
1,hard,96,3,1,410.783
1,hard,96,4,1,268.869
1,hard,96,5,1,377.321
1,hard,96,6,1,413.693
1,hard,96,7,1,725.628
1,hard,96,8,0,497.795
1,hard,96,9,1,893.283
1,hard,96,10,1,407.719
1,hard,97,1,1,803.591
1,hard,97,2,0,313.306
1,hard,97,3,1,411.987
1,hard,97,4,1,290.514
1,hard,97,5,0,452.392
1,hard,97,6,0,498.73
1,hard,97,7,1,707.729
1,hard,97,8,0,460.321
1,hard,97,9,1,918.798
1,hard,97,10,1,406.663
1,hard,98,1,1,793.621
1,hard,98,2,0,312.95
1,hard,98,3,0,506.346
1,hard,98,4,1,299.391
1,hard,98,5,0,480.413
1,hard,98,6,0,535.011
1,hard,98,7,1,742.309
1,hard,98,8,0,503.638
1,hard,98,9,1,950.603
1,hard,98,10,1,369.666
1,hard,99,1,1,756.927
1,hard,99,2,0,331.244
1,hard,99,3,0,545.629
1,hard,99,4,1,281.696
1,hard,99,5,0,480.182
1,hard,99,6,0,511.799
1,hard,99,7,1,680.159
1,hard,99,8,0,438.78
1,hard,99,9,1,952.416
1,hard,99,10,1,426.238
1,hard,100,1,1,761.203
1,hard,100,2,0,315.686
1,hard,100,3,0,522.587
1,hard,100,4,0,362.813
1,hard,100,5,0,450.936
1,hard,100,6,1,448.663
1,hard,100,7,1,756.831
1,hard,100,8,0,440.198
1,hard,100,9,1,939.007
1,hard,100,10,0,509.337
1,hard,101,1,0,904.702
1,hard,101,2,0,321.028
1,hard,101,3,0,508.173
1,hard,101,4,1,293.845
1,hard,101,5,1,382.186
1,hard,101,6,0,564.203
1,hard,101,7,1,734.085
1,hard,101,8,0,490.311
1,hard,101,9,1,956.578
1,hard,101,10,1,437.844
1,hard,102,1,1,863.694
1,hard,102,2,0,366.072
1,hard,102,3,0,506.584
1,hard,102,4,0,367.766
1,hard,102,5,1,349.627
1,hard,102,6,1,415.391
1,hard,102,7,0,898.554
1,hard,102,8,0,496.746
1,hard,102,9,1,904.825
1,hard,102,10,1,415.92
1,hard,103,1,1,811.497
1,hard,103,2,0,339.155
1,hard,103,3,0,525.193
1,hard,103,4,1,273.538
1,hard,103,5,0,473.798
1,hard,103,6,0,545.874
1,hard,103,7,0,836.101
1,hard,103,8,0,458.899
1,hard,103,9,1,871.657
1,hard,103,10,1,403.531
1,hard,104,1,1,742.994
1,hard,104,2,0,317.929
1,hard,104,3,1,411.189
1,hard,104,4,1,263.326
1,hard,104,5,0,457.401
1,hard,104,6,0,539.204
1,hard,104,7,1,694.029
1,hard,104,8,0,419.159
1,hard,104,9,1,905.532
1,hard,104,10,1,362.19
1,hard,105,1,1,772.248
1,hard,105,2,0,337.807
1,hard,105,3,1,385.603
1,hard,105,4,0,361.256
1,hard,105,5,1,394.726
1,hard,105,6,0,540.411
1,hard,105,7,1,777.62
1,hard,105,8,0,490.505
1,hard,105,9,1,898.817
1,hard,105,10,1,384.671
1,hard,106,1,1,783.463
1,hard,106,2,0,330.878
1,hard,106,3,1,441.868
1,hard,106,4,1,304.191
1,hard,106,5,0,476.839
1,hard,106,6,0,508.199
1,hard,106,7,1,676.559
1,hard,106,8,0,507.335
1,hard,106,9,0,1078.225
1,hard,106,10,1,393.006
1,hard,107,1,1,829.387
1,hard,107,2,0,352.214
1,hard,107,3,1,376.869
1,hard,107,4,0,379.344
1,hard,107,5,1,390.622
1,hard,107,6,0,588.948
1,hard,107,7,1,700.887
1,hard,107,8,0,489.849
1,hard,107,9,1,872.427
1,hard,107,10,0,499.658
1,hard,108,1,1,730.991
1,hard,108,2,0,296.057
1,hard,108,3,1,393.713
1,hard,108,4,1,285.289
1,hard,108,5,0,426.397
1,hard,108,6,0,503.043
1,hard,108,7,0,898.244
1,hard,108,8,0,465.229
1,hard,108,9,1,908.093
1,hard,108,10,1,400.162
1,hard,109,1,1,756.775
1,hard,109,2,1,247.484
1,hard,109,3,1,387.148
1,hard,109,4,0,363.183
1,hard,109,5,1,407.734
1,hard,109,6,1,435.603
1,hard,109,7,1,694.456
1,hard,109,8,0,447.968
1,hard,109,9,1,892.841
1,hard,109,10,1,415.711
1,hard,110,1,1,771.435
1,hard,110,2,1,246.616
1,hard,110,3,0,473.831
1,hard,110,4,0,352.094
1,hard,110,5,1,362.275
1,hard,110,6,0,477.04
1,hard,110,7,1,708.68
1,hard,110,8,0,421.116
1,hard,110,9,0,1129.255
1,hard,110,10,1,406.197
1,hard,111,1,1,801.199
1,hard,111,2,0,314.976
1,hard,111,3,0,505.129
1,hard,111,4,0,332.578
1,hard,111,5,1,362.317
1,hard,111,6,0,488.754
1,hard,111,7,1,766.061
1,hard,111,8,0,448.033
1,hard,111,9,1,924.025
1,hard,111,10,0,553.553
1,hard,112,1,1,738.322
1,hard,112,2,0,292.441
1,hard,112,3,1,390.096
1,hard,112,4,0,382.588
1,hard,112,5,1,386.914
1,hard,112,6,0,510.642
1,hard,112,7,1,687.886
1,hard,112,8,0,465.72
1,hard,112,9,1,844.381
1,hard,112,10,1,401.421
1,hard,113,1,1,813.945
1,hard,113,2,0,345.166
1,hard,113,3,0,468.923
1,hard,113,4,0,381.666
1,hard,113,5,1,390.664
1,hard,113,6,0,520.764
1,hard,113,7,1,786.635
1,hard,113,8,0,451.651
1,hard,113,9,1,907.771
1,hard,113,10,0,490.006
1,hard,114,1,1,719.66
1,hard,114,2,0,325.931
1,hard,114,3,1,413.015
1,hard,114,4,1,286.182
1,hard,114,5,0,450.581
1,hard,114,6,0,518.831
1,hard,114,7,1,715.512
1,hard,114,8,0,444.427
1,hard,114,9,0,1158.134
1,hard,114,10,0,462.246
1,hard,115,1,1,786.157
1,hard,115,2,0,356.355
1,hard,115,3,1,451.444
1,hard,115,4,1,305.318
1,hard,115,5,0,458.554
1,hard,115,6,0,524.059
1,hard,115,7,1,809.169
1,hard,115,8,0,444.615
1,hard,115,9,0,1114.989
1,hard,115,10,0,522.431
1,hard,116,1,1,847.709
1,hard,116,2,0,327.66
1,hard,116,3,1,377.017
1,hard,116,4,1,301.183
1,hard,116,5,0,482.408
1,hard,116,6,0,561.693
1,hard,116,7,1,742.599
1,hard,116,8,0,494.988
1,hard,116,9,1,849.257
1,hard,116,10,1,399.891
1,hard,117,1,1,801.598
1,hard,117,2,0,339.785
1,hard,117,3,1,403.987
1,hard,117,4,0,370.585
1,hard,117,5,1,371.285
1,hard,117,6,0,495.715
1,hard,117,7,1,808.796
1,hard,117,8,0,465.935
1,hard,117,9,1,856.647
1,hard,117,10,0,586.976
1,hard,118,1,0,900.171
1,hard,118,2,0,325.474
1,hard,118,3,1,417.287
1,hard,118,4,1,291.497
1,hard,118,5,1,346.917
1,hard,118,6,1,466.026
1,hard,118,7,1,723.974
1,hard,118,8,0,489.476
1,hard,118,9,0,1035.157
1,hard,118,10,1,461.859
1,hard,119,1,1,744.299
1,hard,119,2,0,354.85
1,hard,119,3,0,496.57
1,hard,119,4,0,388.563
1,hard,119,5,1,353.652
1,hard,119,6,0,492.932
1,hard,119,7,1,695.964
1,hard,119,8,0,524.745
1,hard,119,9,1,887.994
1,hard,119,10,1,402.922
1,hard,120,1,0,992.376
1,hard,120,2,0,356.423
1,hard,120,3,0,497.046
1,hard,120,4,1,277.882
1,hard,120,5,0,442.423
1,hard,120,6,0,518.963
1,hard,120,7,1,692.253
1,hard,120,8,0,470.037
1,hard,120,9,0,1016.246
1,hard,120,10,0,455.409
1,hard,121,1,1,765.365
1,hard,121,2,0,329.724
1,hard,121,3,0,486.72
1,hard,121,4,0,366.678
1,hard,121,5,1,341.315
1,hard,121,6,0,550.603
1,hard,121,7,1,756.868
1,hard,121,8,0,474.876
1,hard,121,9,1,849.404
1,hard,121,10,1,383.874
1,hard,122,1,1,796.511
1,hard,122,2,0,319.235
1,hard,122,3,1,427.198
1,hard,122,4,0,315.576
1,hard,122,5,1,379.407
1,hard,122,6,0,472.458
1,hard,122,7,1,789.135
1,hard,122,8,1,370.796
1,hard,122,9,0,1084.583
1,hard,122,10,1,353.678
1,hard,123,1,1,703.731
1,hard,123,2,0,339.082
1,hard,123,3,0,481.595
1,hard,123,4,1,296.95
1,hard,123,5,1,396.424
1,hard,123,6,0,530.08
1,hard,123,7,1,741.535
1,hard,123,8,0,431.677
1,hard,123,9,1,937.897
1,hard,123,10,0,506.794
1,hard,124,1,1,750.043
1,hard,124,2,0,297.054
1,hard,124,3,0,459.824
1,hard,124,4,1,288.108
1,hard,124,5,1,358.503
1,hard,124,6,0,575.457
1,hard,124,7,1,774.705
1,hard,124,8,0,482.392
1,hard,124,9,1,1003.234
1,hard,124,10,0,507.525
1,hard,125,1,1,740.969
1,hard,125,2,1,251.679
1,hard,125,3,0,440.024
1,hard,125,4,0,344.706
1,hard,125,5,1,421.619
1,hard,125,6,0,521.672
1,hard,125,7,0,914.097
1,hard,125,8,0,496.595
1,hard,125,9,1,915.278
1,hard,125,10,0,487.294
1,hard,126,1,1,710.475
1,hard,126,2,0,346.704
1,hard,126,3,0,525.133
1,hard,126,4,1,290.543
1,hard,126,5,1,401.348
1,hard,126,6,0,500.121
1,hard,126,7,1,711.103
1,hard,126,8,0,493.355
1,hard,126,9,1,928.528
1,hard,126,10,1,407.609
1,hard,127,1,1,778.38
1,hard,127,2,0,301.726
1,hard,127,3,0,493.714
1,hard,127,4,1,272.577
1,hard,127,5,0,438.505
1,hard,127,6,0,558.295
1,hard,127,7,1,688.281
1,hard,127,8,0,445.618
1,hard,127,9,0,1134.386
1,hard,127,10,0,473.584
1,hard,128,1,0,879.977
1,hard,128,2,0,295.644
1,hard,128,3,0,477.068
1,hard,128,4,1,283.501
1,hard,128,5,1,334.184
1,hard,128,6,1,462.124
1,hard,128,7,1,721.766
1,hard,128,8,0,449.453
1,hard,128,9,1,867.254
1,hard,128,10,0,486.344
1,hard,129,1,1,850.589
1,hard,129,2,0,322.657
1,hard,129,3,1,456.256
1,hard,129,4,1,259.355
1,hard,129,5,1,360.408
1,hard,129,6,0,543.395
1,hard,129,7,1,748.269
1,hard,129,8,0,468.727
1,hard,129,9,1,1019.454
1,hard,129,10,1,430.213
1,hard,130,1,1,793.093
1,hard,130,2,0,341.783
1,hard,130,3,1,385.451
1,hard,130,4,0,347.379
1,hard,130,5,1,345.455
1,hard,130,6,0,532.502
1,hard,130,7,1,765.866
1,hard,130,8,0,465.676
1,hard,130,9,1,915.503
1,hard,130,10,0,526.686
1,hard,131,1,1,758.487
1,hard,131,2,0,353.321
1,hard,131,3,0,471.481
1,hard,131,4,0,349.875
1,hard,131,5,1,364.169
1,hard,131,6,1,406.133
1,hard,131,7,1,752.306
1,hard,131,8,1,393.123
1,hard,131,9,1,993.117
1,hard,131,10,0,524.47
1,hard,132,1,1,819.946
1,hard,132,2,1,277.396
1,hard,132,3,1,380.011
1,hard,132,4,0,351.719
1,hard,132,5,0,467.316
1,hard,132,6,1,447.082
1,hard,132,7,1,755.658
1,hard,132,8,0,460.819
1,hard,132,9,1,989.092
1,hard,132,10,1,396.339
1,hard,133,1,1,835.343
1,hard,133,2,0,318.067
1,hard,133,3,0,500.975
1,hard,133,4,0,343.719
1,hard,133,5,0,464.559
1,hard,133,6,0,505.334
1,hard,133,7,1,754.302
1,hard,133,8,0,472.779
1,hard,133,9,1,873.078
1,hard,133,10,1,413.604
1,hard,134,1,1,718.23
1,hard,134,2,1,252.096
1,hard,134,3,1,471.68
1,hard,134,4,1,279.778
1,hard,134,5,1,359.433
1,hard,134,6,0,500.884
1,hard,134,7,1,782.938
1,hard,134,8,0,468.398
1,hard,134,9,1,939.998
1,hard,134,10,1,420.918
1,hard,135,1,1,815.455
1,hard,135,2,1,262.484
1,hard,135,3,0,458.142
1,hard,135,4,0,350.646
1,hard,135,5,0,426.951
1,hard,135,6,0,480.503
1,hard,135,7,1,793.64
1,hard,135,8,0,399.617
1,hard,135,9,1,913.573
1,hard,135,10,0,439.731
1,hard,136,1,1,777.863
1,hard,136,2,1,262.887
1,hard,136,3,1,399.779
1,hard,136,4,1,293.701
1,hard,136,5,1,398.477
1,hard,136,6,1,441.316
1,hard,136,7,1,710.341
1,hard,136,8,0,481.897
1,hard,136,9,1,897.208
1,hard,136,10,1,391.77
1,hard,137,1,1,768.918
1,hard,137,2,0,313.821
1,hard,137,3,1,365.671
1,hard,137,4,0,370.542
1,hard,137,5,1,360.452
1,hard,137,6,1,414.435
1,hard,137,7,1,822.111
1,hard,137,8,0,479.679
1,hard,137,9,1,911.554
1,hard,137,10,1,372.11
1,hard,138,1,1,812.512
1,hard,138,2,0,310.5
1,hard,138,3,0,494.292
1,hard,138,4,0,369.996
1,hard,138,5,1,383.136
1,hard,138,6,0,506.146
1,hard,138,7,1,801.338
1,hard,138,8,0,479.93
1,hard,138,9,1,921.864
1,hard,138,10,0,464.356
1,hard,139,1,1,740.218
1,hard,139,2,0,343.372
1,hard,139,3,0,505.413
1,hard,139,4,1,302.731
1,hard,139,5,1,347.28
1,hard,139,6,0,520.674
1,hard,139,7,1,726.448
1,hard,139,8,0,448.993
1,hard,139,9,1,999.584
1,hard,139,10,1,438.215
1,hard,140,1,1,754.786
1,hard,140,2,1,245.762
1,hard,140,3,0,484.514
1,hard,140,4,0,363.635
1,hard,140,5,1,353.236
1,hard,140,6,0,559.46
1,hard,140,7,1,756.418
1,hard,140,8,0,465.56
1,hard,140,9,1,945.673
1,hard,140,10,0,492.906
1,hard,141,1,1,784.229
1,hard,141,2,0,375.896
1,hard,141,3,1,416.225
1,hard,141,4,0,338.337
1,hard,141,5,0,474.035
1,hard,141,6,0,526.884
1,hard,141,7,0,907.002
1,hard,141,8,0,451.477
1,hard,141,9,1,932.945
1,hard,141,10,0,489.306
1,hard,142,1,1,815.084
1,hard,142,2,1,261.068
1,hard,142,3,1,410.267
1,hard,142,4,0,374.2
1,hard,142,5,1,408.498
1,hard,142,6,0,527.482
1,hard,142,7,1,760.179
1,hard,142,8,0,441.22
1,hard,142,9,1,923.852
1,hard,142,10,1,448.402
1,hard,143,1,1,804.761
1,hard,143,2,0,320.297
1,hard,143,3,0,507.719
1,hard,143,4,0,375.424
1,hard,143,5,0,452.796
1,hard,143,6,0,450.496
1,hard,143,7,1,673.368
1,hard,143,8,0,464.668
1,hard,143,9,1,956.42
1,hard,143,10,1,362.027
1,hard,144,1,1,827.015
1,hard,144,2,0,344.394
1,hard,144,3,1,419.837
1,hard,144,4,0,370.571
1,hard,144,5,0,438.342
1,hard,144,6,1,424.228
1,hard,144,7,0,846.93
1,hard,144,8,0,469.649
1,hard,144,9,1,868.707
1,hard,144,10,1,407.356
1,hard,145,1,1,793.188
1,hard,145,2,1,257.93
1,hard,145,3,0,486.743
1,hard,145,4,0,359.986
1,hard,145,5,1,385.864
1,hard,145,6,1,425.716
1,hard,145,7,1,745.229
1,hard,145,8,0,513.688
1,hard,145,9,0,1208.587
1,hard,145,10,1,411.469
1,hard,146,1,1,730.646
1,hard,146,2,0,328.332
1,hard,146,3,1,403.919
1,hard,146,4,1,274.125
1,hard,146,5,0,514.67
1,hard,146,6,0,529.589
1,hard,146,7,1,724.07
1,hard,146,8,0,526.747
1,hard,146,9,1,909.263
1,hard,146,10,1,399.949
1,hard,147,1,1,808.287
1,hard,147,2,0,315.268
1,hard,147,3,0,470.582
1,hard,147,4,0,351.75
1,hard,147,5,0,446.58
1,hard,147,6,0,541.258
1,hard,147,7,1,696.065
1,hard,147,8,0,453.957
1,hard,147,9,1,907.695
1,hard,147,10,1,397.707
1,hard,148,1,1,795.177
1,hard,148,2,1,269.527
1,hard,148,3,0,496.717
1,hard,148,4,0,351.936
1,hard,148,5,1,385.926
1,hard,148,6,0,509.488
1,hard,148,7,1,724.747
1,hard,148,8,0,460.594
1,hard,148,9,1,778.557
1,hard,148,10,1,412.756
1,hard,149,1,1,828.248
1,hard,149,2,0,300.034
1,hard,149,3,1,419.675
1,hard,149,4,1,278.678
1,hard,149,5,1,367.055
1,hard,149,6,0,552.864
1,hard,149,7,1,692.771
1,hard,149,8,0,438.448
1,hard,149,9,1,941.553
1,hard,149,10,0,511.47
1,hard,150,1,0,867.997
1,hard,150,2,0,322.883
1,hard,150,3,1,394.934
1,hard,150,4,1,272.625
1,hard,150,5,1,365.213
1,hard,150,6,0,546.198
1,hard,150,7,1,686.137
1,hard,150,8,0,463.292
1,hard,150,9,1,863.982
1,hard,150,10,1,422.92
1,hard,151,1,1,742.033
1,hard,151,2,0,296.843
1,hard,151,3,0,472.92
1,hard,151,4,0,331.6
1,hard,151,5,1,373.558
1,hard,151,6,0,489.605
1,hard,151,7,1,742.541
1,hard,151,8,0,465.668
1,hard,151,9,1,907.777
1,hard,151,10,1,409.302
1,hard,152,1,1,802.681
1,hard,152,2,1,271.128
1,hard,152,3,0,501.643
1,hard,152,4,1,271.079
1,hard,152,5,1,365.203
1,hard,152,6,0,460.979
1,hard,152,7,1,727.208
1,hard,152,8,0,469.609
1,hard,152,9,1,873.271
1,hard,152,10,0,492.223
1,hard,153,1,1,806.703
1,hard,153,2,0,304.974
1,hard,153,3,1,387.915
1,hard,153,4,0,349.365
1,hard,153,5,0,467.226
1,hard,153,6,0,500.356
1,hard,153,7,1,679.845
1,hard,153,8,0,460.73
1,hard,153,9,1,893.464
1,hard,153,10,0,474.069
1,hard,154,1,0,947.871
1,hard,154,2,0,330.271
1,hard,154,3,1,383.269
1,hard,154,4,0,360.275
1,hard,154,5,1,380.516
1,hard,154,6,0,551.262
1,hard,154,7,1,761.586
1,hard,154,8,0,469.347
1,hard,154,9,1,897.907
1,hard,154,10,1,435.007
1,hard,155,1,1,816.752
1,hard,155,2,1,283.772
1,hard,155,3,0,471.164
1,hard,155,4,1,319.835
1,hard,155,5,0,494.404
1,hard,155,6,0,500.292
1,hard,155,7,1,792.591
1,hard,155,8,0,454.506
1,hard,155,9,0,1009.471
1,hard,155,10,0,496.699
1,hard,156,1,1,820.145
1,hard,156,2,0,313.321
1,hard,156,3,0,521.928
1,hard,156,4,1,268.73
1,hard,156,5,1,346.278
1,hard,156,6,1,426.965
1,hard,156,7,1,719.2
1,hard,156,8,0,449.806
1,hard,156,9,1,891.84
1,hard,156,10,1,436.619
1,hard,157,1,1,742.935
1,hard,157,2,0,335.935
1,hard,157,3,1,359.032
1,hard,157,4,0,340.459
1,hard,157,5,0,451.515
1,hard,157,6,1,430.802
1,hard,157,7,1,746.224
1,hard,157,8,1,385.176
1,hard,157,9,1,907.477
1,hard,157,10,1,427.605
1,hard,158,1,1,720.305
1,hard,158,2,0,296.797
1,hard,158,3,0,527.726
1,hard,158,4,1,293.637
1,hard,158,5,1,356.286
1,hard,158,6,0,536.663
1,hard,158,7,0,912.099
1,hard,158,8,0,491.678
1,hard,158,9,1,870.114
1,hard,158,10,1,397.543
1,hard,159,1,1,789.451
1,hard,159,2,0,312.831
1,hard,159,3,0,490.399
1,hard,159,4,1,284.61
1,hard,159,5,0,453.199
1,hard,159,6,0,466.126
1,hard,159,7,1,787.618
1,hard,159,8,0,457.037
1,hard,159,9,1,900.309
1,hard,159,10,0,499.628
1,hard,160,1,1,748.946
1,hard,160,2,0,338.04
1,hard,160,3,1,421.388
1,hard,160,4,1,311.598
1,hard,160,5,0,481.112
1,hard,160,6,0,496.816
1,hard,160,7,1,701.087
1,hard,160,8,0,458.522
1,hard,160,9,1,948.856
1,hard,160,10,0,477.318
1,hard,161,1,1,825.205
1,hard,161,2,0,326.961
1,hard,161,3,0,465.871
1,hard,161,4,1,301.019
1,hard,161,5,0,443.1
1,hard,161,6,0,537.186
1,hard,161,7,0,838.246
1,hard,161,8,0,472.178
1,hard,161,9,1,898.17
1,hard,161,10,0,491.61
1,hard,162,1,1,746.722
1,hard,162,2,1,254.439
1,hard,162,3,1,381.253
1,hard,162,4,1,293.204
1,hard,162,5,0,451.466
1,hard,162,6,0,489.125
1,hard,162,7,1,758.133
1,hard,162,8,1,401.368
1,hard,162,9,1,879.182
1,hard,162,10,0,522.317
1,hard,163,1,1,827.702
1,hard,163,2,0,336.008
1,hard,163,3,1,418.267
1,hard,163,4,1,292.231
1,hard,163,5,0,451.687
1,hard,163,6,0,491.229
1,hard,163,7,1,734.678
1,hard,163,8,0,472.397
1,hard,163,9,0,1209.227
1,hard,163,10,1,447.199
1,hard,164,1,0,1023.555
1,hard,164,2,0,333.418
1,hard,164,3,1,425.544
1,hard,164,4,1,304.048
1,hard,164,5,1,393.084
1,hard,164,6,0,518.232
1,hard,164,7,1,687.418
1,hard,164,8,0,457.718
1,hard,164,9,1,933.31
1,hard,164,10,0,487.362
1,hard,165,1,1,866.971
1,hard,165,2,0,292.817
1,hard,165,3,1,418.342
1,hard,165,4,0,369.004
1,hard,165,5,1,416.097
1,hard,165,6,0,490.056
1,hard,165,7,1,677.423
1,hard,165,8,1,386.01
1,hard,165,9,1,955.186
1,hard,165,10,1,387.873
1,hard,166,1,1,770.737
1,hard,166,2,0,327.557
1,hard,166,3,1,445.679
1,hard,166,4,0,366.052
1,hard,166,5,1,391.704
1,hard,166,6,0,537.64
1,hard,166,7,1,746.845
1,hard,166,8,0,494.545
1,hard,166,9,1,1040.371
1,hard,166,10,1,465.262
1,hard,167,1,1,756.515
1,hard,167,2,0,326.816
1,hard,167,3,1,389.139
1,hard,167,4,1,301.98
1,hard,167,5,1,369.748
1,hard,167,6,0,557.636
1,hard,167,7,1,818.839
1,hard,167,8,0,467.098
1,hard,167,9,0,1100.581
1,hard,167,10,0,480.433
1,hard,168,1,1,784.021
1,hard,168,2,0,349.259
1,hard,168,3,0,487.637
1,hard,168,4,0,364.684
1,hard,168,5,0,479.236
1,hard,168,6,0,568.05
1,hard,168,7,1,763.066
1,hard,168,8,0,448.695
1,hard,168,9,1,1043.549
1,hard,168,10,1,383.729
1,hard,169,1,1,786.626
1,hard,169,2,0,336.035
1,hard,169,3,0,499.312
1,hard,169,4,1,303.53
1,hard,169,5,0,460.586
1,hard,169,6,1,405.657
1,hard,169,7,0,900.374
1,hard,169,8,0,528.177
1,hard,169,9,1,897.058
1,hard,169,10,1,378.733
1,hard,170,1,1,756.143
1,hard,170,2,0,338.146
1,hard,170,3,1,429.625
1,hard,170,4,0,332.963
1,hard,170,5,1,372.665
1,hard,170,6,0,531.577
1,hard,170,7,0,913.774
1,hard,170,8,0,479.349
1,hard,170,9,1,862.893
1,hard,170,10,0,478.702
1,hard,171,1,1,789.982
1,hard,171,2,1,263.29
1,hard,171,3,0,535.307
1,hard,171,4,1,275.615
1,hard,171,5,0,509.033
1,hard,171,6,0,488.728
1,hard,171,7,1,729.08
1,hard,171,8,0,478.154
1,hard,171,9,1,851.039
1,hard,171,10,1,425.531
1,hard,172,1,1,801.323
1,hard,172,2,0,319.419
1,hard,172,3,0,500.714
1,hard,172,4,1,303.409
1,hard,172,5,1,409.429
1,hard,172,6,0,511.625
1,hard,172,7,1,740.998
1,hard,172,8,0,462.583
1,hard,172,9,1,920.569
1,hard,172,10,1,430.995
1,hard,173,1,1,752.016
1,hard,173,2,0,294.285
1,hard,173,3,0,490.872
1,hard,173,4,0,362.949
1,hard,173,5,1,369.238
1,hard,173,6,0,491.96
1,hard,173,7,1,696.55
1,hard,173,8,0,438.387
1,hard,173,9,1,937.105
1,hard,173,10,0,514.147
1,hard,174,1,1,748.655
1,hard,174,2,0,344.861
1,hard,174,3,1,396.819
1,hard,174,4,1,292.24
1,hard,174,5,1,350.395
1,hard,174,6,1,434.041
1,hard,174,7,1,744.625
1,hard,174,8,0,445.187
1,hard,174,9,0,1167.508
1,hard,174,10,1,369.263
1,hard,175,1,1,788.241
1,hard,175,2,1,253.994
1,hard,175,3,0,485.083
1,hard,175,4,1,296.745
1,hard,175,5,0,474.58
1,hard,175,6,0,545.895
1,hard,175,7,1,698.812
1,hard,175,8,0,479.843
1,hard,175,9,0,1157.224
1,hard,175,10,1,420.735
1,hard,176,1,1,763.69
1,hard,176,2,0,317.514
1,hard,176,3,0,490
1,hard,176,4,1,259.003
1,hard,176,5,0,484.883
1,hard,176,6,0,524.324
1,hard,176,7,0,870.969
1,hard,176,8,0,450.837
1,hard,176,9,1,918.952
1,hard,176,10,0,503.442
1,hard,177,1,1,747.772
1,hard,177,2,0,317.557
1,hard,177,3,1,382.791
1,hard,177,4,0,411.359
1,hard,177,5,0,491.048
1,hard,177,6,0,479.495
1,hard,177,7,1,692.103
1,hard,177,8,0,445.9
1,hard,177,9,1,918.833
1,hard,177,10,1,390.686
1,hard,178,1,1,747.32
1,hard,178,2,0,307.526
1,hard,178,3,0,461.993
1,hard,178,4,0,329.071
1,hard,178,5,1,353.264
1,hard,178,6,0,493.669
1,hard,178,7,1,807.103
1,hard,178,8,0,455.841
1,hard,178,9,1,815.507
1,hard,178,10,0,501.086
1,hard,179,1,1,758.131
1,hard,179,2,0,333.155
1,hard,179,3,0,545.971
1,hard,179,4,0,366.657
1,hard,179,5,0,415.248
1,hard,179,6,0,489.444
1,hard,179,7,1,721.675
1,hard,179,8,0,501.681
1,hard,179,9,1,924.975
1,hard,179,10,1,400.396
1,hard,180,1,0,1022.02
1,hard,180,2,0,337.675
1,hard,180,3,1,413.898
1,hard,180,4,0,358.498
1,hard,180,5,1,383.884
1,hard,180,6,0,526.179
1,hard,180,7,1,734.509
1,hard,180,8,0,497.686
1,hard,180,9,1,941.372
1,hard,180,10,1,425.191
1,hard,181,1,0,985.19
1,hard,181,2,0,288.938
1,hard,181,3,0,484.27
1,hard,181,4,0,381.236
1,hard,181,5,1,325.783
1,hard,181,6,0,495.968
1,hard,181,7,0,867.865
1,hard,181,8,0,458.387
1,hard,181,9,1,1005.42
1,hard,181,10,0,449.764
1,hard,182,1,1,785.749
1,hard,182,2,0,343.275
1,hard,182,3,1,416.082
1,hard,182,4,0,380.001
1,hard,182,5,1,382.264
1,hard,182,6,0,515.419
1,hard,182,7,0,923.152
1,hard,182,8,0,450.935
1,hard,182,9,0,1139.344
1,hard,182,10,1,373.311
1,hard,183,1,1,833.723
1,hard,183,2,0,332.895
1,hard,183,3,1,424.216
1,hard,183,4,1,299.711
1,hard,183,5,0,462.496
1,hard,183,6,0,488.999
1,hard,183,7,1,723.698
1,hard,183,8,0,450.834
1,hard,183,9,1,918.684
1,hard,183,10,1,428.005
1,hard,184,1,0,955.451
1,hard,184,2,1,258.12
1,hard,184,3,1,434.121
1,hard,184,4,1,274.022
1,hard,184,5,1,404.223
1,hard,184,6,1,421.933
1,hard,184,7,1,722.705
1,hard,184,8,0,462.128
1,hard,184,9,1,993.539
1,hard,184,10,1,395.313
1,hard,185,1,1,775.509
1,hard,185,2,0,302.915
1,hard,185,3,1,412.396
1,hard,185,4,1,305.648
1,hard,185,5,0,448.933
1,hard,185,6,0,525.909
1,hard,185,7,1,775.486
1,hard,185,8,1,386.152
1,hard,185,9,1,1010.189
1,hard,185,10,0,507.798
1,hard,186,1,1,773.757
1,hard,186,2,0,297.872
1,hard,186,3,0,521.806
1,hard,186,4,0,364.722
1,hard,186,5,1,368.933
1,hard,186,6,0,511.786
1,hard,186,7,1,709.555
1,hard,186,8,0,451.369
1,hard,186,9,1,881.81
1,hard,186,10,0,478.897
1,hard,187,1,1,763.375
1,hard,187,2,1,262.474
1,hard,187,3,0,515.793
1,hard,187,4,0,341.852
1,hard,187,5,1,362.876
1,hard,187,6,0,518.089
1,hard,187,7,1,779.739
1,hard,187,8,0,439.994
1,hard,187,9,1,890.237
1,hard,187,10,1,383.758
1,hard,188,1,1,741.629
1,hard,188,2,0,342.908
1,hard,188,3,1,411.134
1,hard,188,4,1,295.656
1,hard,188,5,1,363.353
1,hard,188,6,0,530.954
1,hard,188,7,0,954.913
1,hard,188,8,0,424.011
1,hard,188,9,0,1114.526
1,hard,188,10,0,503.697
1,hard,189,1,0,958.146
1,hard,189,2,0,332.317
1,hard,189,3,0,492.625
1,hard,189,4,0,361.845
1,hard,189,5,1,398.606
1,hard,189,6,0,508.259
1,hard,189,7,1,690.407
1,hard,189,8,0,434.94
1,hard,189,9,1,911.227
1,hard,189,10,0,479.739
1,hard,190,1,1,798.665
1,hard,190,2,0,331.204
1,hard,190,3,0,490.369
1,hard,190,4,1,297.17
1,hard,190,5,1,405.372
1,hard,190,6,0,530.947
1,hard,190,7,1,722.343
1,hard,190,8,0,469.996
1,hard,190,9,1,945.74
1,hard,190,10,1,390.784
1,hard,191,1,1,761.494
1,hard,191,2,0,299.996
1,hard,191,3,1,405.786
1,hard,191,4,1,299.84
1,hard,191,5,0,487.823
1,hard,191,6,0,588.355
1,hard,191,7,1,754.103
1,hard,191,8,0,470.43
1,hard,191,9,1,983.472
1,hard,191,10,1,402.121
1,hard,192,1,1,885.332
1,hard,192,2,0,328.659
1,hard,192,3,1,424.288
1,hard,192,4,0,368.846
1,hard,192,5,1,364.556
1,hard,192,6,0,538.435
1,hard,192,7,0,889.421
1,hard,192,8,0,476.513
1,hard,192,9,1,836.484
1,hard,192,10,1,403.151
1,hard,193,1,1,817.341
1,hard,193,2,0,363.747
1,hard,193,3,1,384.881
1,hard,193,4,1,288.417
1,hard,193,5,1,380.614
1,hard,193,6,0,496.241
1,hard,193,7,1,725.554
1,hard,193,8,0,465.959
1,hard,193,9,0,1164.404
1,hard,193,10,0,470.822
1,hard,194,1,1,749.918
1,hard,194,2,1,244.778
1,hard,194,3,1,405.66
1,hard,194,4,0,365.763
1,hard,194,5,1,383.142
1,hard,194,6,0,518.145
1,hard,194,7,1,709.532
1,hard,194,8,0,439.436
1,hard,194,9,1,888.51
1,hard,194,10,1,372.216
1,hard,195,1,1,815.219
1,hard,195,2,1,254.321
1,hard,195,3,0,500.893
1,hard,195,4,1,282.56
1,hard,195,5,0,475.017
1,hard,195,6,1,435.326
1,hard,195,7,1,713.66
1,hard,195,8,0,465.686
1,hard,195,9,1,904.885
1,hard,195,10,1,415.183
1,hard,196,1,1,809.045
1,hard,196,2,0,311.841
1,hard,196,3,1,408.316
1,hard,196,4,1,302.512
1,hard,196,5,0,445.498
1,hard,196,6,0,517.584
1,hard,196,7,1,736.059
1,hard,196,8,0,479.878
1,hard,196,9,1,845.675
1,hard,196,10,0,473.218
1,hard,197,1,1,767.678
1,hard,197,2,0,335.294
1,hard,197,3,0,493.377
1,hard,197,4,0,359.792
1,hard,197,5,1,361.172
1,hard,197,6,1,396.163
1,hard,197,7,0,928.183
1,hard,197,8,0,451.965
1,hard,197,9,1,915.732
1,hard,197,10,0,466.694
1,hard,198,1,0,929.366
1,hard,198,2,0,362.561
1,hard,198,3,1,378.907
1,hard,198,4,1,310.823
1,hard,198,5,1,356.021
1,hard,198,6,1,437.721
1,hard,198,7,0,970.399
1,hard,198,8,0,485.354
1,hard,198,9,1,963.454
1,hard,198,10,1,419.663
1,hard,199,1,1,865.154
1,hard,199,2,1,268.01
1,hard,199,3,0,510.63
1,hard,199,4,0,362.457
1,hard,199,5,1,373.042
1,hard,199,6,0,565.939
1,hard,199,7,0,870.28
1,hard,199,8,0,432.42
1,hard,199,9,0,1145.335
1,hard,199,10,0,497.219
1,hard,200,1,1,718.198
1,hard,200,2,0,302.192
1,hard,200,3,0,470.729
1,hard,200,4,0,358.749
1,hard,200,5,0,422.381
1,hard,200,6,0,475.844
1,hard,200,7,1,839.555
1,hard,200,8,0,471.059
1,hard,200,9,1,887.179
1,hard,200,10,0,446.999
1,hard,201,1,1,719.487
1,hard,201,2,1,282.978
1,hard,201,3,0,495.193
1,hard,201,4,0,358.885
1,hard,201,5,1,363.824
1,hard,201,6,0,510.047
1,hard,201,7,0,847.635
1,hard,201,8,0,423.786
1,hard,201,9,1,897.718
1,hard,201,10,0,490.211
1,hard,202,1,1,768.927
1,hard,202,2,0,325.971
1,hard,202,3,0,474.698
1,hard,202,4,0,364.331
1,hard,202,5,1,367.187
1,hard,202,6,0,514.881
1,hard,202,7,0,892.338
1,hard,202,8,0,417.028
1,hard,202,9,0,1121.165
1,hard,202,10,1,419.466
1,hard,203,1,1,769.153
1,hard,203,2,0,329.435
1,hard,203,3,1,439.159
1,hard,203,4,1,273.556
1,hard,203,5,0,493.278
1,hard,203,6,0,501.462
1,hard,203,7,1,738.797
1,hard,203,8,0,471.378
1,hard,203,9,1,883.375
1,hard,203,10,0,512.381
1,hard,204,1,1,807.885
1,hard,204,2,0,322.827
1,hard,204,3,1,416.853
1,hard,204,4,1,293.348
1,hard,204,5,1,372.482
1,hard,204,6,0,500.717
1,hard,204,7,1,688.129
1,hard,204,8,0,479.123
1,hard,204,9,1,912.401
