size,condition,trial,subject,correct,RT
1,easy,1,1,1,577.883
1,easy,1,2,0,253.426
1,easy,1,3,1,276.346
1,easy,1,4,0,254.985
1,easy,1,5,1,282.83
1,easy,1,6,0,368.297
1,easy,1,7,1,640.901
1,easy,1,8,0,356.795
1,easy,1,9,1,680.78
1,easy,1,10,1,248.423
1,easy,2,1,1,644.023
1,easy,2,2,0,245.822
1,easy,2,3,1,297.885
1,easy,2,4,0,232.776
1,easy,2,5,0,340.205
1,easy,2,6,1,293.486
1,easy,2,7,0,722.294
1,easy,2,8,0,336.087
1,easy,2,9,1,570.433
1,easy,2,10,0,367.231
1,easy,3,1,1,520.585
1,easy,3,2,0,188.823
1,easy,3,3,1,387.816
1,easy,3,4,1,166.516
1,easy,3,5,1,297.022
1,easy,3,6,0,379.924
1,easy,3,7,1,570.485
1,easy,3,8,0,286.252
1,easy,3,9,1,741.715
1,easy,3,10,1,239.136
1,easy,4,1,1,537.34
1,easy,4,2,0,286.03
1,easy,4,3,0,328.82
1,easy,4,4,1,177.903
1,easy,4,5,0,319.047
1,easy,4,6,1,298.659
1,easy,4,7,1,613.602
1,easy,4,8,0,331.886
1,easy,4,9,1,740.096
1,easy,4,10,0,387.436
1,easy,5,1,0,718.861
1,easy,5,2,0,265.911
1,easy,5,3,0,351.735
1,easy,5,4,1,241.985
1,easy,5,5,0,321.07
1,easy,5,6,0,365.536
1,easy,5,7,1,505.16
1,easy,5,8,0,327.793
1,easy,5,9,1,662.297
1,easy,5,10,1,272.507
1,easy,6,1,1,550.469
1,easy,6,2,0,222.225
1,easy,6,3,0,383.989
1,easy,6,4,1,215.749
1,easy,6,5,0,294.071
1,easy,6,6,0,367.218
1,easy,6,7,1,533.779
1,easy,6,8,0,318.288
1,easy,6,9,1,626.383
1,easy,6,10,0,330.423
1,easy,7,1,1,631.24
1,easy,7,2,0,249.517
1,easy,7,3,1,277.161
1,easy,7,4,1,194.349
1,easy,7,5,1,246.412
1,easy,7,6,1,292.074
1,easy,7,7,1,516.148
1,easy,7,8,0,362.519
1,easy,7,9,1,599.156
1,easy,7,10,0,371.193
1,easy,8,1,1,602.221
1,easy,8,2,0,247.563
1,easy,8,3,1,262.756
1,easy,8,4,0,243.108
1,easy,8,5,1,258.807
1,easy,8,6,0,365.167
1,easy,8,7,1,491.756
1,easy,8,8,0,318.723
1,easy,8,9,1,655.771
1,easy,8,10,0,338.447
1,easy,9,1,1,589.839
1,easy,9,2,0,262.234
1,easy,9,3,1,305.121
1,easy,9,4,1,209.854
1,easy,9,5,1,232.545
1,easy,9,6,0,398.032
1,easy,9,7,1,525.254
1,easy,9,8,0,282.826
1,easy,9,9,1,694.43
1,easy,9,10,1,233.163
1,easy,10,1,0,680.255
1,easy,10,2,1,200.081
1,easy,10,3,0,416.878
1,easy,10,4,0,247
1,easy,10,5,1,287.093
1,easy,10,6,0,404.229
1,easy,10,7,1,517.838
1,easy,10,8,1,296.852
1,easy,10,9,0,795.664
1,easy,10,10,0,351.021
1,easy,11,1,1,630.992
1,easy,11,2,0,257.15
1,easy,11,3,0,319.104
1,easy,11,4,0,238.112
1,easy,11,5,1,286.976
1,easy,11,6,0,404.835
1,easy,11,7,0,656.376
1,easy,11,8,0,302.709
1,easy,11,9,0,889.788
1,easy,11,10,0,390.989
1,easy,12,1,1,472.82
1,easy,12,2,0,214.977
1,easy,12,3,0,383.783
1,easy,12,4,1,226.479
1,easy,12,5,1,302.819
1,easy,12,6,0,366.518
1,easy,12,7,1,569.919
1,easy,12,8,0,379.34
1,easy,12,9,0,951.797
1,easy,12,10,0,321.215
1,easy,13,1,1,670.254
1,easy,13,2,0,197.415
1,easy,13,3,1,307.176
1,easy,13,4,0,280.835
1,easy,13,5,0,328.913
1,easy,13,6,0,441.334
1,easy,13,7,0,575.797
1,easy,13,8,0,325.919
1,easy,13,9,1,715.593
1,easy,13,10,0,384.684
1,easy,14,1,1,548.671
1,easy,14,2,0,202.387
1,easy,14,3,0,284.949
1,easy,14,4,1,221.856
1,easy,14,5,1,297.318
1,easy,14,6,0,343.494
1,easy,14,7,1,544.307
1,easy,14,8,0,315.702
1,easy,14,9,0,700.801
1,easy,14,10,0,369.293
1,easy,15,1,1,618.789
1,easy,15,2,0,271.268
1,easy,15,3,0,326.773
1,easy,15,4,0,236.428
1,easy,15,5,1,295.397
1,easy,15,6,0,422.219
1,easy,15,7,1,613.857
1,easy,15,8,0,343.539
1,easy,15,9,1,595.476
1,easy,15,10,1,269.64
1,easy,16,1,1,690.105
1,easy,16,2,1,192.471
1,easy,16,3,1,252.567
1,easy,16,4,1,218.727
1,easy,16,5,0,401.192
1,easy,16,6,0,322.001
1,easy,16,7,1,476.183
1,easy,16,8,0,274.657
1,easy,16,9,1,678.732
1,easy,16,10,1,316.302
1,easy,17,1,1,506.823
1,easy,17,2,1,209.158
1,easy,17,3,0,318.993
1,easy,17,4,1,178.375
1,easy,17,5,1,303.673
1,easy,17,6,1,285.379
1,easy,17,7,1,490.319
1,easy,17,8,0,300.707
1,easy,17,9,1,718.621
1,easy,17,10,0,347.94
1,easy,18,1,1,595.507
1,easy,18,2,0,259.588
1,easy,18,3,1,287.493
1,easy,18,4,1,210.865
1,easy,18,5,0,277.14
1,easy,18,6,0,428.013
1,easy,18,7,0,570.118
1,easy,18,8,1,287.696
1,easy,18,9,1,624.489
1,easy,18,10,0,321.443
1,easy,19,1,1,551.24
1,easy,19,2,1,208.785
1,easy,19,3,0,338.212
1,easy,19,4,0,270.357
1,easy,19,5,0,390.762
1,easy,19,6,0,384.144
1,easy,19,7,1,623.49
1,easy,19,8,0,377.685
1,easy,19,9,1,747.92
1,easy,19,10,0,337.018
1,easy,20,1,1,556.536
1,easy,20,2,0,268.822
1,easy,20,3,0,358.99
1,easy,20,4,1,209.509
1,easy,20,5,1,272.986
1,easy,20,6,0,364.156
1,easy,20,7,1,598.312
1,easy,20,8,0,377.589
1,easy,20,9,1,651.183
1,easy,20,10,1,283.184
1,easy,21,1,1,447.954
1,easy,21,2,0,216.145
1,easy,21,3,1,331.31
1,easy,21,4,0,243.516
1,easy,21,5,1,224.277
1,easy,21,6,0,505.633
1,easy,21,7,1,500.364
1,easy,21,8,0,390.639
1,easy,21,9,1,613.431
1,easy,21,10,0,271.939
1,easy,22,1,1,531.354
1,easy,22,2,0,251.841
1,easy,22,3,0,348.162
1,easy,22,4,0,269.396
1,easy,22,5,1,259.985
1,easy,22,6,1,282.8
1,easy,22,7,1,562.244
1,easy,22,8,0,335.132
1,easy,22,9,1,602.901
1,easy,22,10,0,372.456
1,easy,23,1,1,541.974
1,easy,23,2,0,230.202
1,easy,23,3,0,350.111
1,easy,23,4,1,198.028
1,easy,23,5,0,354.049
1,easy,23,6,0,399.294
1,easy,23,7,1,549.564
1,easy,23,8,0,323.097
1,easy,23,9,1,717.25
1,easy,23,10,1,328.076
1,easy,24,1,1,540.907
1,easy,24,2,0,216.962
1,easy,24,3,0,341.162
1,easy,24,4,1,225.957
1,easy,24,5,0,317.62
1,easy,24,6,0,371.974
1,easy,24,7,1,593.258
1,easy,24,8,0,319.953
1,easy,24,9,1,573.163
1,easy,24,10,1,273.775
1,easy,25,1,1,645.292
1,easy,25,2,0,244.089
1,easy,25,3,1,323.22
1,easy,25,4,0,225.647
1,easy,25,5,0,348.688
1,easy,25,6,0,368.767
1,easy,25,7,1,507.473
1,easy,25,8,0,363.29
1,easy,25,9,1,775.581
1,easy,25,10,0,323.474
1,easy,26,1,1,589.408
1,easy,26,2,0,224.364
1,easy,26,3,0,357.782
1,easy,26,4,0,251.617
1,easy,26,5,1,275.789
1,easy,26,6,0,399.661
1,easy,26,7,0,602.739
1,easy,26,8,0,361.831
1,easy,26,9,0,772.415
1,easy,26,10,1,256.746
1,easy,27,1,1,546.88
1,easy,27,2,0,249.661
1,easy,27,3,1,292.724
1,easy,27,4,0,228.582
1,easy,27,5,0,344.894
1,easy,27,6,0,354.926
1,easy,27,7,0,651.127
1,easy,27,8,0,332.204
1,easy,27,9,0,798.244
1,easy,27,10,1,274.084
1,easy,28,1,1,569.675
1,easy,28,2,0,234.084
1,easy,28,3,1,269.624
1,easy,28,4,1,206.819
1,easy,28,5,1,249.798
1,easy,28,6,0,310.687
1,easy,28,7,1,484.155
1,easy,28,8,0,325.334
1,easy,28,9,0,742.11
1,easy,28,10,1,314.943
1,easy,29,1,1,509.898
1,easy,29,2,0,206.979
1,easy,29,3,1,266.878
1,easy,29,4,0,289.537
1,easy,29,5,0,319.331
1,easy,29,6,0,339.087
1,easy,29,7,0,560.283
1,easy,29,8,0,354.371
1,easy,29,9,1,808.628
1,easy,29,10,0,346.438
1,easy,30,1,1,461.852
1,easy,30,2,1,194.369
1,easy,30,3,0,415.113
1,easy,30,4,1,212.523
1,easy,30,5,1,252.737
1,easy,30,6,0,422.108
1,easy,30,7,1,509.471
1,easy,30,8,0,296.053
1,easy,30,9,0,797.89
1,easy,30,10,0,340.09
1,easy,31,1,1,488.234
1,easy,31,2,0,238.086
1,easy,31,3,1,317.476
1,easy,31,4,0,229.387
1,easy,31,5,0,303.146
1,easy,31,6,1,297.615
1,easy,31,7,1,479.391
1,easy,31,8,0,265.749
1,easy,31,9,1,649.855
1,easy,31,10,0,301.645
1,easy,32,1,0,675.652
1,easy,32,2,1,165.396
1,easy,32,3,0,310.737
1,easy,32,4,0,222.808
1,easy,32,5,1,254.919
1,easy,32,6,0,353.95
1,easy,32,7,1,497.706
1,easy,32,8,0,317.655
1,easy,32,9,1,576.472
1,easy,32,10,1,297.192
1,easy,33,1,1,533.323
1,easy,33,2,0,202.505
1,easy,33,3,1,255.158
1,easy,33,4,0,245.807
1,easy,33,5,1,244.017
1,easy,33,6,1,348.392
1,easy,33,7,1,511.849
1,easy,33,8,0,332.847
1,easy,33,9,1,707.438
1,easy,33,10,0,452.819
1,easy,34,1,1,601.257
1,easy,34,2,1,192.977
1,easy,34,3,0,369.357
1,easy,34,4,1,229.548
1,easy,34,5,1,265.207
1,easy,34,6,0,324.39
1,easy,34,7,0,642.908
1,easy,34,8,0,357.518
1,easy,34,9,1,626.123
1,easy,34,10,1,271.217
1,easy,35,1,1,574.536
1,easy,35,2,0,231.63
1,easy,35,3,1,270.094
1,easy,35,4,0,235.995
1,easy,35,5,1,259.433
1,easy,35,6,0,448.037
1,easy,35,7,1,424.977
1,easy,35,8,0,345.557
1,easy,35,9,1,637.258
1,easy,35,10,0,337.058
1,easy,36,1,1,579.283
1,easy,36,2,0,213.086
1,easy,36,3,0,396.689
1,easy,36,4,0,217.641
1,easy,36,5,0,358.121
1,easy,36,6,1,277.803
1,easy,36,7,1,555.953
1,easy,36,8,0,319.813
1,easy,36,9,1,749.333
1,easy,36,10,1,314.127
1,easy,37,1,1,563.838
1,easy,37,2,0,264.694
1,easy,37,3,1,313.99
1,easy,37,4,0,267.986
1,easy,37,5,1,256.081
1,easy,37,6,0,346.235
1,easy,37,7,0,685.301
1,easy,37,8,0,425.756
1,easy,37,9,1,563.966
1,easy,37,10,1,302.718
1,easy,38,1,1,566.922
1,easy,38,2,1,189.982
1,easy,38,3,1,234.424
1,easy,38,4,0,229.41
1,easy,38,5,1,251.44
1,easy,38,6,0,397.737
1,easy,38,7,1,483.868
1,easy,38,8,0,294.174
1,easy,38,9,0,726.27
1,easy,38,10,1,292.341
1,easy,39,1,1,491.643
1,easy,39,2,1,195.244
1,easy,39,3,0,337.464
1,easy,39,4,0,304.821
1,easy,39,5,1,251.122
1,easy,39,6,0,379.811
1,easy,39,7,1,603.638
1,easy,39,8,0,315.577
1,easy,39,9,1,620.648
1,easy,39,10,1,271.407
1,easy,40,1,1,590.843
1,easy,40,2,0,257.859
1,easy,40,3,0,366.778
1,easy,40,4,0,234.856
1,easy,40,5,0,306.137
1,easy,40,6,0,334.686
1,easy,40,7,1,458.064
1,easy,40,8,0,382.875
1,easy,40,9,1,605.235
1,easy,40,10,1,263.089
1,easy,41,1,1,600.175
1,easy,41,2,0,228.971
1,easy,41,3,0,380.424
1,easy,41,4,1,199.505
1,easy,41,5,0,269.319
1,easy,41,6,0,348.114
1,easy,41,7,1,532.707
1,easy,41,8,0,252.334
1,easy,41,9,0,698.232
1,easy,41,10,1,297.796
1,easy,42,1,1,659.977
1,easy,42,2,0,231.635
1,easy,42,3,0,358.76
1,easy,42,4,1,207.114
1,easy,42,5,1,248.334
1,easy,42,6,0,385.446
1,easy,42,7,1,433.946
1,easy,42,8,0,346.554
1,easy,42,9,1,647.398
1,easy,42,10,0,365.202
1,easy,43,1,1,561.128
1,easy,43,2,0,224.075
1,easy,43,3,0,360.524
1,easy,43,4,1,214.646
1,easy,43,5,0,268.782
1,easy,43,6,1,311.788
1,easy,43,7,0,644.613
1,easy,43,8,0,367.523
1,easy,43,9,1,725.906
1,easy,43,10,1,315.954
1,easy,44,1,1,526.803
1,easy,44,2,0,227.039
1,easy,44,3,0,398.404
1,easy,44,4,1,205.143
1,easy,44,5,0,351.126
1,easy,44,6,0,316.185
1,easy,44,7,0,555.883
1,easy,44,8,0,331.925
1,easy,44,9,1,613.746
1,easy,44,10,1,260.058
1,easy,45,1,1,496.972
1,easy,45,2,0,252.952
1,easy,45,3,1,290.198
1,easy,45,4,1,184.83
1,easy,45,5,0,306.458
1,easy,45,6,0,334.886
1,easy,45,7,0,619.834
1,easy,45,8,0,379.136
1,easy,45,9,1,733.515
1,easy,45,10,1,272.571
1,easy,46,1,1,571.085
1,easy,46,2,0,221.913
1,easy,46,3,0,361.02
1,easy,46,4,1,233.962
1,easy,46,5,0,355.739
1,easy,46,6,0,305.823
1,easy,46,7,1,628.438
1,easy,46,8,0,340.29
1,easy,46,9,1,611.765
1,easy,46,10,0,452.792
1,easy,47,1,1,584.723
1,easy,47,2,0,229.033
1,easy,47,3,0,348.723
1,easy,47,4,1,189.145
1,easy,47,5,1,294.284
1,easy,47,6,0,318.283
1,easy,47,7,1,601.899
1,easy,47,8,0,312.768
1,easy,47,9,1,665.217
1,easy,47,10,0,356.022
1,easy,48,1,1,584.012
1,easy,48,2,0,274.893
1,easy,48,3,0,364.714
1,easy,48,4,1,221.694
1,easy,48,5,0,315.633
1,easy,48,6,0,447.646
1,easy,48,7,1,503.405
1,easy,48,8,0,372.35
1,easy,48,9,1,710.326
1,easy,48,10,0,389.538
1,easy,49,1,1,530.283
1,easy,49,2,0,254.922
1,easy,49,3,0,315.713
1,easy,49,4,0,267.477
1,easy,49,5,0,328.453
1,easy,49,6,0,279.214
1,easy,49,7,1,455.252
1,easy,49,8,0,364.392
1,easy,49,9,1,552.854
1,easy,49,10,0,337.237
1,easy,50,1,1,541.706
1,easy,50,2,0,225.094
1,easy,50,3,0,340.479
1,easy,50,4,0,286.768
1,easy,50,5,1,355.549
1,easy,50,6,0,349.695
1,easy,50,7,1,493.769
1,easy,50,8,0,320.987
1,easy,50,9,1,621.55
1,easy,50,10,1,271.312
1,easy,51,1,1,575.622
1,easy,51,2,0,214.761
1,easy,51,3,1,225.851
1,easy,51,4,0,244.459
1,easy,51,5,1,267.254
1,easy,51,6,0,385.287
1,easy,51,7,0,726.969
1,easy,51,8,0,327.584
1,easy,51,9,1,588.841
1,easy,51,10,1,300.071
1,easy,52,1,1,520.165
1,easy,52,2,0,227.097
1,easy,52,3,0,316.889
1,easy,52,4,1,216.904
1,easy,52,5,1,262.977
1,easy,52,6,0,358.995
1,easy,52,7,0,646.179
1,easy,52,8,0,369.349
1,easy,52,9,1,818.749
1,easy,52,10,1,346.325
1,easy,53,1,1,545.769
1,easy,53,2,0,237.705
1,easy,53,3,0,321.827
1,easy,53,4,1,215.532
1,easy,53,5,0,339.928
1,easy,53,6,0,388.585
1,easy,53,7,1,460.143
1,easy,53,8,1,276.958
1,easy,53,9,1,620.46
1,easy,53,10,0,378.569
1,easy,54,1,1,537.87
1,easy,54,2,0,241.006
1,easy,54,3,1,275.163
1,easy,54,4,1,229.887
1,easy,54,5,1,246.514
1,easy,54,6,0,405.747
1,easy,54,7,1,543.265
1,easy,54,8,0,330.997
1,easy,54,9,1,622.016
1,easy,54,10,0,313.212
1,easy,55,1,1,574.075
1,easy,55,2,0,239.652
1,easy,55,3,1,276.55
1,easy,55,4,1,218.597
1,easy,55,5,1,273.908
1,easy,55,6,0,367.765
1,easy,55,7,1,420.711
1,easy,55,8,0,305.516
1,easy,55,9,1,718.916
1,easy,55,10,0,326.375
1,easy,56,1,0,676.541
1,easy,56,2,1,222.451
1,easy,56,3,1,246.289
1,easy,56,4,1,224.184
1,easy,56,5,0,399.46
1,easy,56,6,0,392.857
1,easy,56,7,1,435.843
1,easy,56,8,0,307.259
1,easy,56,9,1,576.338
1,easy,56,10,1,264.288
1,easy,57,1,1,601.546
1,easy,57,2,0,206.817
1,easy,57,3,1,328.815
1,easy,57,4,0,247.717
1,easy,57,5,1,280.175
1,easy,57,6,0,358.185
1,easy,57,7,0,649.467
1,easy,57,8,0,290.175
1,easy,57,9,1,812.4
1,easy,57,10,0,393.76
1,easy,58,1,1,605.076
1,easy,58,2,0,252.731
1,easy,58,3,0,367.071
1,easy,58,4,1,194.717
1,easy,58,5,1,272.575
1,easy,58,6,0,332.165
1,easy,58,7,1,576.065
1,easy,58,8,0,377.528
1,easy,58,9,0,873.276
1,easy,58,10,1,298.018
1,easy,59,1,0,713.586
1,easy,59,2,1,156.694
1,easy,59,3,0,332.389
1,easy,59,4,1,186.705
1,easy,59,5,0,298.58
1,easy,59,6,1,278.176
1,easy,59,7,1,536.335
1,easy,59,8,0,345.549
1,easy,59,9,1,753.727
1,easy,59,10,0,292.341
1,easy,60,1,1,615.615
1,easy,60,2,0,278.174
1,easy,60,3,0,369.882
1,easy,60,4,1,202.904
1,easy,60,5,0,335.359
1,easy,60,6,0,415.991
1,easy,60,7,1,500.103
1,easy,60,8,0,303.232
1,easy,60,9,0,715.063
1,easy,60,10,1,257.783
1,easy,61,1,1,491.664
1,easy,61,2,1,179.436
1,easy,61,3,0,322.744
1,easy,61,4,0,241.504
1,easy,61,5,0,318.401
1,easy,61,6,0,335.22
1,easy,61,7,1,600.536
1,easy,61,8,0,333.603
1,easy,61,9,0,852.366
1,easy,61,10,0,372.18
1,easy,62,1,1,615.259
1,easy,62,2,1,187.713
1,easy,62,3,0,401.457
1,easy,62,4,0,269.681
1,easy,62,5,0,324.297
1,easy,62,6,0,400.276
1,easy,62,7,1,548.61
1,easy,62,8,0,301.374
1,easy,62,9,1,724.199
1,easy,62,10,0,409.819
1,easy,63,1,1,606.138
1,easy,63,2,0,240.799
1,easy,63,3,0,386.25
1,easy,63,4,0,215.953
1,easy,63,5,0,297.311
1,easy,63,6,1,298.74
1,easy,63,7,1,529.441
1,easy,63,8,0,317.692
1,easy,63,9,1,694.165
1,easy,63,10,1,316.673
1,easy,64,1,0,691.855
1,easy,64,2,0,273.275
1,easy,64,3,1,258.586
1,easy,64,4,1,192.373
1,easy,64,5,1,282.686
1,easy,64,6,0,324.238
1,easy,64,7,1,482.191
1,easy,64,8,0,283.819
1,easy,64,9,1,598.108
1,easy,64,10,1,271.165
1,easy,65,1,1,698.884
1,easy,65,2,1,194.839
1,easy,65,3,1,263.132
1,easy,65,4,1,210.055
1,easy,65,5,1,256.016
1,easy,65,6,0,342.09
1,easy,65,7,1,555.947
1,easy,65,8,0,320.574
1,easy,65,9,1,610.481
1,easy,65,10,1,280.907
1,easy,66,1,1,608.462
1,easy,66,2,0,249.76
1,easy,66,3,0,343.038
1,easy,66,4,1,229.659
1,easy,66,5,1,280.701
1,easy,66,6,0,369.775
1,easy,66,7,1,609.418
1,easy,66,8,0,372.094
1,easy,66,9,1,699.723
1,easy,66,10,0,306.788
1,easy,67,1,1,469.893
1,easy,67,2,0,184.678
1,easy,67,3,0,358.566
1,easy,67,4,0,236.629
1,easy,67,5,1,231.49
1,easy,67,6,0,407.405
1,easy,67,7,1,589.316
1,easy,67,8,0,301.099
1,easy,67,9,1,652.677
1,easy,67,10,0,350.834
1,easy,68,1,1,553.091
1,easy,68,2,0,267.619
1,easy,68,3,0,385.517
1,easy,68,4,0,223.786
1,easy,68,5,0,325.59
1,easy,68,6,0,340.297
1,easy,68,7,1,617.2
1,easy,68,8,0,363.457
1,easy,68,9,1,696.123
1,easy,68,10,0,429.279
1,easy,69,1,1,607.067
1,easy,69,2,0,246.801
1,easy,69,3,0,340.804
1,easy,69,4,1,218.035
1,easy,69,5,0,300.963
1,easy,69,6,0,408.443
1,easy,69,7,1,512.982
1,easy,69,8,0,308.334
1,easy,69,9,1,833.186
1,easy,69,10,0,356.873
1,easy,70,1,0,599.936
1,easy,70,2,1,191.898
1,easy,70,3,0,354.08
1,easy,70,4,0,263.286
1,easy,70,5,1,257.074
1,easy,70,6,0,378.458
1,easy,70,7,1,547.694
1,easy,70,8,0,324.443
1,easy,70,9,0,773.953
1,easy,70,10,0,340.6
1,easy,71,1,1,575.662
1,easy,71,2,0,234.189
1,easy,71,3,0,351.519
1,easy,71,4,1,180.615
1,easy,71,5,0,343.837
1,easy,71,6,0,330.005
1,easy,71,7,1,544.531
1,easy,71,8,0,299.34
1,easy,71,9,1,652.178
1,easy,71,10,1,293.873
1,easy,72,1,1,525.313
1,easy,72,2,0,227.391
1,easy,72,3,0,377.185
1,easy,72,4,1,182.706
1,easy,72,5,0,334.654
1,easy,72,6,0,383.485
1,easy,72,7,1,559.971
1,easy,72,8,0,405.334
1,easy,72,9,1,692.426
1,easy,72,10,0,315.478
1,easy,73,1,1,505.188
1,easy,73,2,0,220.43
1,easy,73,3,1,285.895
1,easy,73,4,1,189.335
1,easy,73,5,1,268.031
1,easy,73,6,0,363.911
1,easy,73,7,0,719.897
1,easy,73,8,0,283.359
1,easy,73,9,1,633.09
1,easy,73,10,1,285.56
1,easy,74,1,1,592.467
1,easy,74,2,0,225.879
1,easy,74,3,0,315.938
1,easy,74,4,1,190.974
1,easy,74,5,1,323.527
1,easy,74,6,1,294.138
1,easy,74,7,1,539.888
1,easy,74,8,0,343.438
1,easy,74,9,1,709.32
1,easy,74,10,0,333.926
1,easy,75,1,0,628.878
1,easy,75,2,0,271.471
1,easy,75,3,1,306.084
1,easy,75,4,1,210.232
1,easy,75,5,1,269.624
1,easy,75,6,0,386.615
1,easy,75,7,0,583.847
1,easy,75,8,0,371.273
1,easy,75,9,0,757.262
1,easy,75,10,1,260.191
1,easy,76,1,1,620.785
1,easy,76,2,0,227.244
1,easy,76,3,0,392.185
1,easy,76,4,1,220.267
1,easy,76,5,1,318.962
1,easy,76,6,0,349.082
1,easy,76,7,1,547.06
1,easy,76,8,0,332.973
1,easy,76,9,1,635.299
1,easy,76,10,0,384.061
1,easy,77,1,1,601.926
1,easy,77,2,0,234.436
1,easy,77,3,1,290.336
1,easy,77,4,0,279.313
1,easy,77,5,1,250.419
1,easy,77,6,0,330.112
1,easy,77,7,1,679.484
1,easy,77,8,0,318.47
1,easy,77,9,1,642.705
1,easy,77,10,0,353.114
1,easy,78,1,0,711.103
1,easy,78,2,0,220.517
1,easy,78,3,0,385.089
1,easy,78,4,0,252.37
1,easy,78,5,1,275.705
1,easy,78,6,0,304.694
1,easy,78,7,1,554.618
1,easy,78,8,0,349.262
1,easy,78,9,1,605.516
1,easy,78,10,0,382.232
1,easy,79,1,1,624.381
1,easy,79,2,0,209.36
1,easy,79,3,1,347.742
1,easy,79,4,1,200.06
1,easy,79,5,0,332.73
1,easy,79,6,0,388.921
1,easy,79,7,1,428.382
1,easy,79,8,0,383.896
1,easy,79,9,0,769.973
1,easy,79,10,0,369.315
1,easy,80,1,1,549.472
1,easy,80,2,0,238.241
1,easy,80,3,0,357.912
1,easy,80,4,1,174.444
1,easy,80,5,1,270.892
1,easy,80,6,0,406.232
1,easy,80,7,1,576.247
1,easy,80,8,1,271.448
1,easy,80,9,1,686.128
1,easy,80,10,0,332.178
1,easy,81,1,1,603.948
1,easy,81,2,0,267.671
1,easy,81,3,1,252.31
1,easy,81,4,0,240.218
1,easy,81,5,0,331.665
1,easy,81,6,0,416.665
1,easy,81,7,1,529.855
1,easy,81,8,0,333.427
1,easy,81,9,1,779.984
1,easy,81,10,1,261.07
1,easy,82,1,1,600.555
1,easy,82,2,0,282.632
1,easy,82,3,0,359.323
1,easy,82,4,0,263.022
1,easy,82,5,1,250.029
1,easy,82,6,0,415.411
1,easy,82,7,1,691.7
1,easy,82,8,0,340.707
1,easy,82,9,1,648.732
1,easy,82,10,0,444.186
1,easy,83,1,1,576.732
1,easy,83,2,1,207.226
1,easy,83,3,0,372.076
1,easy,83,4,1,209.291
1,easy,83,5,1,281.526
1,easy,83,6,1,280.996
1,easy,83,7,1,624.807
1,easy,83,8,0,328.063
1,easy,83,9,1,709.984
1,easy,83,10,1,318.62
1,easy,84,1,1,511.287
1,easy,84,2,1,195.071
1,easy,84,3,0,326.586
1,easy,84,4,1,236.381
1,easy,84,5,1,280.228
1,easy,84,6,0,346.6
1,easy,84,7,0,716.667
1,easy,84,8,0,287.135
1,easy,84,9,1,546.889
1,easy,84,10,1,298.225
1,easy,85,1,1,620.373
1,easy,85,2,1,186.614
1,easy,85,3,0,347.752
1,easy,85,4,0,237.32
1,easy,85,5,0,346.208
1,easy,85,6,1,291.443
1,easy,85,7,1,584.796
1,easy,85,8,0,325.619
1,easy,85,9,0,738.85
1,easy,85,10,0,351.192
1,easy,86,1,1,581.858
1,easy,86,2,0,227.751
1,easy,86,3,0,369.257
1,easy,86,4,0,239.138
1,easy,86,5,0,279.556
1,easy,86,6,1,264.814
1,easy,86,7,1,448.672
1,easy,86,8,0,324.285
1,easy,86,9,1,670.322
1,easy,86,10,0,329.555
1,easy,87,1,1,711.822
1,easy,87,2,0,216.422
1,easy,87,3,0,350.247
1,easy,87,4,0,266.036
1,easy,87,5,1,252.897
1,easy,87,6,0,374.622
1,easy,87,7,1,478.754
1,easy,87,8,0,326.654
1,easy,87,9,1,655.302
1,easy,87,10,1,340.86
1,easy,88,1,1,529.455
1,easy,88,2,1,162.775
1,easy,88,3,1,243.465
1,easy,88,4,1,209.619
1,easy,88,5,0,372.714
1,easy,88,6,0,327.625
1,easy,88,7,1,480.71
1,easy,88,8,0,380.91
1,easy,88,9,1,739.015
1,easy,88,10,1,261.195
1,easy,89,1,0,734.469
1,easy,89,2,0,247.04
1,easy,89,3,0,303.009
1,easy,89,4,1,187.808
1,easy,89,5,1,275.5
1,easy,89,6,0,392.456
1,easy,89,7,0,672.146
1,easy,89,8,0,290.267
1,easy,89,9,1,551.348
1,easy,89,10,0,316.581
1,easy,90,1,1,568.614
1,easy,90,2,0,223.03
1,easy,90,3,1,243.631
1,easy,90,4,0,236.499
1,easy,90,5,0,309.864
1,easy,90,6,1,319.259
1,easy,90,7,0,724.82
1,easy,90,8,0,296.395
1,easy,90,9,1,609.545
1,easy,90,10,1,306.439
1,easy,91,1,1,515.538
1,easy,91,2,0,241.128
1,easy,91,3,1,264.055
1,easy,91,4,0,280.016
1,easy,91,5,1,292.044
1,easy,91,6,0,367.445
1,easy,91,7,0,590.633
1,easy,91,8,0,334.62
1,easy,91,9,0,818.519
1,easy,91,10,0,329.629
1,easy,92,1,1,523.91
1,easy,92,2,0,267.418
1,easy,92,3,1,277.371
1,easy,92,4,0,256.434
1,easy,92,5,0,326.919
1,easy,92,6,1,323.636
1,easy,92,7,0,621.83
1,easy,92,8,0,420.187
1,easy,92,9,1,652.551
1,easy,92,10,0,333.754
1,easy,93,1,1,554.578
1,easy,93,2,1,239.81
1,easy,93,3,1,309.376
1,easy,93,4,1,215.785
1,easy,93,5,1,263.064
1,easy,93,6,0,390.125
1,easy,93,7,1,510.661
1,easy,93,8,0,317.476
1,easy,93,9,1,692.209
1,easy,93,10,0,348.304
1,easy,94,1,0,702.577
1,easy,94,2,0,233.107
1,easy,94,3,0,308.603
1,easy,94,4,1,177.427
1,easy,94,5,0,306.829
1,easy,94,6,0,390.419
1,easy,94,7,0,624.04
1,easy,94,8,0,321.697
1,easy,94,9,1,727.751
1,easy,94,10,0,344.26
1,easy,95,1,1,497.051
1,easy,95,2,0,285.368
1,easy,95,3,1,275.271
1,easy,95,4,1,198.942
1,easy,95,5,1,294.894
1,easy,95,6,0,411.473
1,easy,95,7,1,543.751
1,easy,95,8,0,282.584
1,easy,95,9,0,879.848
1,easy,95,10,1,293.119
1,easy,96,1,1,517.092
1,easy,96,2,0,209.78
1,easy,96,3,1,285.211
1,easy,96,4,1,214.771
1,easy,96,5,1,298.586
1,easy,96,6,0,321.66
1,easy,96,7,1,464.158
1,easy,96,8,1,260.481
1,easy,96,9,1,781.15
1,easy,96,10,0,316.802
1,easy,97,1,1,558.96
1,easy,97,2,0,213.089
1,easy,97,3,0,360.748
1,easy,97,4,1,214.238
1,easy,97,5,0,396.359
1,easy,97,6,0,359.461
1,easy,97,7,0,619.383
1,easy,97,8,1,257.813
1,easy,97,9,1,734.191
1,easy,97,10,1,290.609
1,easy,98,1,1,620.492
1,easy,98,2,1,236.188
1,easy,98,3,0,377.459
1,easy,98,4,1,204.88
1,easy,98,5,0,369.587
1,easy,98,6,0,404.942
1,easy,98,7,1,673.171
1,easy,98,8,0,364.12
1,easy,98,9,1,755.152
1,easy,98,10,1,283.688
1,easy,99,1,1,523.825
1,easy,99,2,0,204.778
1,easy,99,3,0,335.991
1,easy,99,4,1,224.441
1,easy,99,5,0,346.067
1,easy,99,6,0,351.136
1,easy,99,7,1,627.234
1,easy,99,8,0,403.942
1,easy,99,9,1,710.55
1,easy,99,10,0,360.681
1,easy,100,1,0,774.465
1,easy,100,2,0,256.443
1,easy,100,3,0,343.289
1,easy,100,4,0,300.239
1,easy,100,5,0,322.344
1,easy,100,6,1,297.124
1,easy,100,7,1,526.005
1,easy,100,8,0,369.519
1,easy,100,9,1,604.751
1,easy,100,10,1,380.932
1,easy,101,1,1,671.314
1,easy,101,2,1,187.097
1,easy,101,3,0,400.052
1,easy,101,4,1,196.889
1,easy,101,5,1,242.985
1,easy,101,6,1,315.917
1,easy,101,7,0,625.206
1,easy,101,8,0,302.809
1,easy,101,9,1,676.686
1,easy,101,10,1,279.012
1,easy,102,1,0,641.01
1,easy,102,2,1,199.271
1,easy,102,3,0,344.512
1,easy,102,4,1,194.548
1,easy,102,5,1,242.62
1,easy,102,6,0,355.707
1,easy,102,7,1,544.49
1,easy,102,8,0,342.043
1,easy,102,9,0,737.842
1,easy,102,10,0,340.568
1,easy,103,1,1,490.343
1,easy,103,2,0,229.812
1,easy,103,3,1,315.438
1,easy,103,4,0,264.212
1,easy,103,5,0,361.792
1,easy,103,6,1,321.104
1,easy,103,7,1,622.802
1,easy,103,8,0,339.747
1,easy,103,9,1,710.527
1,easy,103,10,0,378.928
1,easy,104,1,1,499.398
1,easy,104,2,0,249.253
1,easy,104,3,1,265.165
1,easy,104,4,1,199.955
1,easy,104,5,0,330.919
1,easy,104,6,0,346.748
1,easy,104,7,1,486.845
1,easy,104,8,0,377.855
1,easy,104,9,1,597.35
1,easy,104,10,0,346.617
1,easy,105,1,0,671.55
1,easy,105,2,0,248.036
1,easy,105,3,1,355.017
1,easy,105,4,1,200.196
1,easy,105,5,0,336.989
1,easy,105,6,0,368.232
1,easy,105,7,1,533.201
1,easy,105,8,0,339.245
1,easy,105,9,0,864.556
1,easy,105,10,1,310.493
1,easy,106,1,1,518.97
1,easy,106,2,0,220.03
1,easy,106,3,1,251.201
1,easy,106,4,0,256.916
1,easy,106,5,0,303.676
1,easy,106,6,1,322.26
1,easy,106,7,0,696.178
1,easy,106,8,0,395.188
1,easy,106,9,0,931.712
1,easy,106,10,1,311.761
1,easy,107,1,0,726.127
1,easy,107,2,0,220.476
1,easy,107,3,1,227.297
1,easy,107,4,1,236.345
1,easy,107,5,0,378.413
1,easy,107,6,0,407.267
1,easy,107,7,1,592.165
1,easy,107,8,0,342.667
1,easy,107,9,1,645.655
1,easy,107,10,1,280.089
1,easy,108,1,1,508.708
1,easy,108,2,0,256.181
1,easy,108,3,0,376.393
1,easy,108,4,1,243.026
1,easy,108,5,1,269.368
1,easy,108,6,0,440.379
1,easy,108,7,1,535.9
1,easy,108,8,0,384.954
1,easy,108,9,1,716.699
1,easy,108,10,1,287.987
1,easy,109,1,1,536.816
1,easy,109,2,0,216.029
1,easy,109,3,0,406.471
1,easy,109,4,1,223.123
1,easy,109,5,1,272.044
1,easy,109,6,0,375.035
1,easy,109,7,1,505.804
1,easy,109,8,0,240.679
1,easy,109,9,1,668.644
1,easy,109,10,0,320.39
1,easy,110,1,1,558.268
1,easy,110,2,0,231.298
1,easy,110,3,1,337.819
1,easy,110,4,1,209.9
1,easy,110,5,1,194.235
1,easy,110,6,0,355.769
1,easy,110,7,1,491.365
1,easy,110,8,0,336.251
1,easy,110,9,1,622.079
1,easy,110,10,1,341.333
1,easy,111,1,1,499.093
1,easy,111,2,0,213.061
1,easy,111,3,1,247.862
1,easy,111,4,0,242.023
1,easy,111,5,1,247.191
1,easy,111,6,0,329.08
1,easy,111,7,1,569.091
1,easy,111,8,0,349.608
1,easy,111,9,0,744.812
1,easy,111,10,1,253.609
1,easy,112,1,1,589.904
1,easy,112,2,0,207.905
1,easy,112,3,1,277.583
1,easy,112,4,1,214.219
1,easy,112,5,0,349.871
1,easy,112,6,0,352.824
1,easy,112,7,1,573.87
1,easy,112,8,1,267.446
1,easy,112,9,1,623.229
1,easy,112,10,0,442.302
1,easy,113,1,1,503.056
1,easy,113,2,1,192.231
1,easy,113,3,1,335.433
1,easy,113,4,0,268.151
1,easy,113,5,1,310.31
1,easy,113,6,0,376.562
1,easy,113,7,1,575.291
1,easy,113,8,0,334.642
1,easy,113,9,1,715.909
1,easy,113,10,0,372.858
1,easy,114,1,1,433.389
1,easy,114,2,0,221.13
1,easy,114,3,1,292.003
1,easy,114,4,1,225.9
1,easy,114,5,0,326.61
1,easy,114,6,0,343.681
1,easy,114,7,1,487.508
1,easy,114,8,0,320.49
1,easy,114,9,0,756.475
1,easy,114,10,1,292.276
1,easy,115,1,1,503.002
1,easy,115,2,0,220.096
1,easy,115,3,1,324.263
1,easy,115,4,1,217.99
1,easy,115,5,1,268.384
1,easy,115,6,0,451.612
1,easy,115,7,1,559.838
1,easy,115,8,0,296.02
1,easy,115,9,0,758.301
1,easy,115,10,1,303.793
1,easy,116,1,1,513.785
1,easy,116,2,0,257.796
1,easy,116,3,0,320.613
1,easy,116,4,1,260.775
1,easy,116,5,1,276.061
1,easy,116,6,0,422.804
1,easy,116,7,0,719.517
1,easy,116,8,0,360.431
1,easy,116,9,1,692.686
1,easy,116,10,1,308.897
1,easy,117,1,1,557.688
1,easy,117,2,0,243.784
1,easy,117,3,0,385.363
1,easy,117,4,0,306.068
1,easy,117,5,1,247.946
1,easy,117,6,0,356.77
1,easy,117,7,1,571.094
1,easy,117,8,0,359.949
1,easy,117,9,0,740.195
1,easy,117,10,0,339.363
1,easy,118,1,1,526.353
1,easy,118,2,0,197.759
1,easy,118,3,1,313.721
1,easy,118,4,1,202.712
1,easy,118,5,1,262.109
1,easy,118,6,0,372.298
1,easy,118,7,1,560.812
1,easy,118,8,0,299.374
1,easy,118,9,1,697.74
1,easy,118,10,1,287.888
1,easy,119,1,1,580.721
1,easy,119,2,1,172.208
1,easy,119,3,1,310.8
1,easy,119,4,1,172.723
1,easy,119,5,1,257.57
1,easy,119,6,0,392.254
1,easy,119,7,0,657.577
1,easy,119,8,0,293.306
1,easy,119,9,1,629.293
1,easy,119,10,0,332.25
1,easy,120,1,1,547.513
1,easy,120,2,0,238.24
1,easy,120,3,0,303.783
1,easy,120,4,1,232.756
1,easy,120,5,0,324.606
1,easy,120,6,1,328.433
1,easy,120,7,1,451.641
1,easy,120,8,0,350.84
1,easy,120,9,1,741.776
1,easy,120,10,1,300.279
1,easy,121,1,1,482.428
1,easy,121,2,0,267.027
1,easy,121,3,1,301.481
1,easy,121,4,0,299.156
1,easy,121,5,0,331.328
1,easy,121,6,0,420.453
1,easy,121,7,1,587.455
1,easy,121,8,0,327.495
1,easy,121,9,1,671.368
1,easy,121,10,0,360.992
1,easy,122,1,1,476.136
1,easy,122,2,0,249.242
1,easy,122,3,0,356.509
1,easy,122,4,0,220.622
1,easy,122,5,1,309.51
1,easy,122,6,0,381.572
1,easy,122,7,1,572.85
1,easy,122,8,0,381.996
1,easy,122,9,1,616.316
1,easy,122,10,1,327.559
1,easy,123,1,1,528.914
1,easy,123,2,0,229.449
1,easy,123,3,1,281.702
1,easy,123,4,0,255.48
1,easy,123,5,0,343.245
1,easy,123,6,0,463.967
1,easy,123,7,1,521.968
1,easy,123,8,1,225.38
1,easy,123,9,1,725.674
1,easy,123,10,1,316.222
1,easy,124,1,1,527.121
1,easy,124,2,0,237.017
1,easy,124,3,1,255.244
1,easy,124,4,1,196.187
1,easy,124,5,1,280.944
1,easy,124,6,0,431.885
1,easy,124,7,0,605.33
1,easy,124,8,0,402.431
1,easy,124,9,1,666.927
1,easy,124,10,0,350.714
1,easy,125,1,0,570.209
1,easy,125,2,0,224.742
1,easy,125,3,0,400.409
1,easy,125,4,0,306.205
1,easy,125,5,1,258.732
1,easy,125,6,0,366.592
1,easy,125,7,1,624.887
1,easy,125,8,0,324.967
1,easy,125,9,1,693.813
1,easy,125,10,1,292.938
1,easy,126,1,1,586.688
1,easy,126,2,0,255.32
1,easy,126,3,0,308.933
1,easy,126,4,0,278.098
1,easy,126,5,0,322.423
1,easy,126,6,0,323.617
1,easy,126,7,1,592.507
1,easy,126,8,0,315.884
1,easy,126,9,1,722.531
1,easy,126,10,0,358.459
1,easy,127,1,1,548.026
1,easy,127,2,0,263.023
1,easy,127,3,0,301.741
1,easy,127,4,0,286.473
1,easy,127,5,1,229.995
1,easy,127,6,0,382.839
1,easy,127,7,0,592.904
1,easy,127,8,0,362.761
1,easy,127,9,1,703.812
1,easy,127,10,1,285.568
1,easy,128,1,1,549.768
1,easy,128,2,0,218.121
1,easy,128,3,1,282.061
1,easy,128,4,1,209.588
1,easy,128,5,0,325.746
1,easy,128,6,0,369.15
1,easy,128,7,1,470.127
1,easy,128,8,0,313.761
1,easy,128,9,1,675.748
1,easy,128,10,1,318.63
1,easy,129,1,1,444.795
1,easy,129,2,0,257.1
1,easy,129,3,1,272.412
1,easy,129,4,0,252.376
1,easy,129,5,1,280.726
1,easy,129,6,0,355.529
1,easy,129,7,1,603.297
1,easy,129,8,0,305.852
1,easy,129,9,1,665.763
1,easy,129,10,1,311.187
1,easy,130,1,1,689.793
1,easy,130,2,0,222.893
1,easy,130,3,0,310.546
1,easy,130,4,0,251.635
1,easy,130,5,0,322.495
1,easy,130,6,0,335.489
1,easy,130,7,0,660.38
1,easy,130,8,0,313.122
1,easy,130,9,1,578.125
1,easy,130,10,1,317.872
1,easy,131,1,0,548.981
1,easy,131,2,0,244.265
1,easy,131,3,1,276.15
1,easy,131,4,1,195.364
1,easy,131,5,0,324.001
1,easy,131,6,0,399.214
1,easy,131,7,1,570.394
1,easy,131,8,0,366.792
1,easy,131,9,1,587.516
1,easy,131,10,1,284.836
1,easy,132,1,0,578.936
1,easy,132,2,0,219.342
1,easy,132,3,1,291.893
1,easy,132,4,1,229.164
1,easy,132,5,1,286.628
1,easy,132,6,0,360.926
1,easy,132,7,1,526.882
1,easy,132,8,0,430.209
1,easy,132,9,1,744.579
1,easy,132,10,0,287.766
1,easy,133,1,1,657.085
1,easy,133,2,0,214.118
1,easy,133,3,1,308.541
1,easy,133,4,0,233.011
1,easy,133,5,0,339.228
1,easy,133,6,0,362.36
1,easy,133,7,1,523.866
1,easy,133,8,0,302.483
1,easy,133,9,1,554.156
1,easy,133,10,1,290.056
1,easy,134,1,0,569.886
1,easy,134,2,0,284.089
1,easy,134,3,1,300.527
1,easy,134,4,0,249.371
1,easy,134,5,0,381.364
1,easy,134,6,0,397.247
1,easy,134,7,0,683.898
1,easy,134,8,0,301.089
1,easy,134,9,1,719.629
1,easy,134,10,1,330.8
1,easy,135,1,1,616.877
1,easy,135,2,1,213.876
1,easy,135,3,0,327.63
1,easy,135,4,1,207.664
1,easy,135,5,1,233.211
1,easy,135,6,0,342.758
1,easy,135,7,1,500.623
1,easy,135,8,0,315.66
1,easy,135,9,0,1032.857
1,easy,135,10,0,342.06
1,easy,136,1,1,556.024
1,easy,136,2,0,231.652
1,easy,136,3,0,394.686
1,easy,136,4,1,178.414
1,easy,136,5,1,319.032
1,easy,136,6,1,270.841
1,easy,136,7,1,502.263
1,easy,136,8,0,317.831
1,easy,136,9,0,821.968
1,easy,136,10,1,322.84
1,easy,137,1,0,701.563
1,easy,137,2,0,257.297
1,easy,137,3,1,346.074
1,easy,137,4,1,201.221
1,easy,137,5,0,386.058
1,easy,137,6,0,484.242
1,easy,137,7,0,668.433
1,easy,137,8,0,287.395
1,easy,137,9,1,764.834
1,easy,137,10,1,297.667
1,easy,138,1,1,537.029
1,easy,138,2,0,239.086
1,easy,138,3,1,303.196
1,easy,138,4,0,259.607
1,easy,138,5,1,244.863
1,easy,138,6,0,365.148
1,easy,138,7,1,576.281
1,easy,138,8,0,291.844
1,easy,138,9,1,564.93
1,easy,138,10,0,375.633
1,easy,139,1,1,527.504
1,easy,139,2,0,233.367
1,easy,139,3,0,372.098
1,easy,139,4,0,270.143
1,easy,139,5,1,298.283
1,easy,139,6,0,362.859
1,easy,139,7,1,517.902
1,easy,139,8,0,303.713
1,easy,139,9,1,675.347
1,easy,139,10,0,329.298
1,easy,140,1,1,532.917
1,easy,140,2,1,169.931
1,easy,140,3,0,373.225
1,easy,140,4,0,260.675
1,easy,140,5,1,267.739
1,easy,140,6,0,340.154
1,easy,140,7,1,541.802
1,easy,140,8,0,323.425
1,easy,140,9,1,673.051
1,easy,140,10,1,290.909
1,easy,141,1,1,578.905
1,easy,141,2,0,278.607
1,easy,141,3,0,345.129
1,easy,141,4,1,203.474
1,easy,141,5,0,360.502
1,easy,141,6,0,355.696
1,easy,141,7,1,552.382
1,easy,141,8,0,306.659
1,easy,141,9,1,714.172
1,easy,141,10,0,381.606
1,easy,142,1,1,445.313
1,easy,142,2,0,220.027
1,easy,142,3,0,339.918
1,easy,142,4,0,328.304
1,easy,142,5,1,285.284
1,easy,142,6,0,373.725
1,easy,142,7,1,594.026
1,easy,142,8,0,317.088
1,easy,142,9,0,692.08
1,easy,142,10,1,283.299
1,easy,143,1,1,676.211
1,easy,143,2,0,264.472
1,easy,143,3,0,365.938
1,easy,143,4,1,196.54
1,easy,143,5,1,332.553
1,easy,143,6,0,349.734
1,easy,143,7,1,514.926
1,easy,143,8,0,302.47
1,easy,143,9,1,569.42
1,easy,143,10,0,374.022
1,easy,144,1,1,567.051
1,easy,144,2,1,177.713
1,easy,144,3,1,289.819
1,easy,144,4,1,240.598
1,easy,144,5,1,233.597
1,easy,144,6,1,301.892
1,easy,144,7,0,664.673
1,easy,144,8,1,305.504
1,easy,144,9,1,821.997
1,easy,144,10,0,326.668
1,easy,145,1,0,719.813
1,easy,145,2,0,223.371
1,easy,145,3,0,365.531
1,easy,145,4,1,192.971
1,easy,145,5,1,264.842
1,easy,145,6,0,424.948
1,easy,145,7,1,485.192
1,easy,145,8,0,363.584
1,easy,145,9,1,687.751
1,easy,145,10,0,317.382
1,easy,146,1,1,524.903
1,easy,146,2,0,231.691
1,easy,146,3,1,246.851
1,easy,146,4,1,208.602
1,easy,146,5,1,229.607
1,easy,146,6,0,416.674
1,easy,146,7,1,558.149
1,easy,146,8,0,366.339
1,easy,146,9,1,712.545
1,easy,146,10,0,424.106
1,easy,147,1,1,513.436
1,easy,147,2,0,230.654
1,easy,147,3,1,298.267
1,easy,147,4,0,246.671
1,easy,147,5,1,324.971
1,easy,147,6,0,432.28
1,easy,147,7,0,650.249
1,easy,147,8,0,347.304
1,easy,147,9,1,700.123
1,easy,147,10,1,269.032
1,easy,148,1,1,544.442
1,easy,148,2,0,242.952
1,easy,148,3,1,331.583
1,easy,148,4,1,217.649
1,easy,148,5,1,234.235
1,easy,148,6,0,360.875
1,easy,148,7,0,715.864
1,easy,148,8,0,313.185
1,easy,148,9,1,637.186
1,easy,148,10,1,271.031
1,easy,149,1,1,632.8
1,easy,149,2,0,227.554
1,easy,149,3,0,319.792
1,easy,149,4,0,269.986
1,easy,149,5,0,403.133
1,easy,149,6,0,373.014
1,easy,149,7,0,880.666
1,easy,149,8,0,320.773
1,easy,149,9,1,735.261
1,easy,149,10,0,360.429
1,easy,150,1,1,610.092
1,easy,150,2,0,248.253
1,easy,150,3,0,357.938
1,easy,150,4,0,260.134
1,easy,150,5,1,282.711
1,easy,150,6,0,401.849
1,easy,150,7,1,550.523
1,easy,150,8,0,319.944
1,easy,150,9,1,740.675
1,easy,150,10,1,288.823
1,easy,151,1,1,495.245
1,easy,151,2,1,203.59
1,easy,151,3,1,266.832
1,easy,151,4,1,229.392
1,easy,151,5,1,273.559
1,easy,151,6,0,404.764
1,easy,151,7,1,513.747
1,easy,151,8,0,296.253
1,easy,151,9,1,807.398
1,easy,151,10,1,330.823
1,easy,152,1,1,559.628
1,easy,152,2,0,220.767
1,easy,152,3,1,275.104
1,easy,152,4,0,259.05
1,easy,152,5,0,363.587
1,easy,152,6,0,388.368
1,easy,152,7,1,561.294
1,easy,152,8,0,332.056
1,easy,152,9,1,609.076
1,easy,152,10,1,289.668
1,easy,153,1,1,600.609
1,easy,153,2,0,278.51
1,easy,153,3,0,406.152
1,easy,153,4,1,177.947
1,easy,153,5,0,368.946
1,easy,153,6,1,317.736
1,easy,153,7,1,545.151
1,easy,153,8,0,290.827
1,easy,153,9,1,664.263
1,easy,153,10,0,336.683
1,easy,154,1,1,521.077
1,easy,154,2,0,274.283
1,easy,154,3,1,308.547
1,easy,154,4,1,173.882
1,easy,154,5,0,292.032
1,easy,154,6,0,342.354
1,easy,154,7,1,483.205
1,easy,154,8,0,355.709
1,easy,154,9,0,732.11
1,easy,154,10,0,334.952
1,easy,155,1,1,547.07
1,easy,155,2,0,267.975
1,easy,155,3,1,347.562
1,easy,155,4,1,220.616
1,easy,155,5,0,321.721
1,easy,155,6,0,387.551
1,easy,155,7,1,468.639
1,easy,155,8,0,383.198
1,easy,155,9,1,656.087
1,easy,155,10,0,331.858
1,easy,156,1,1,463.858
1,easy,156,2,0,198.078
1,easy,156,3,0,414.071
1,easy,156,4,1,220.195
1,easy,156,5,1,281.821
1,easy,156,6,0,361.399
1,easy,156,7,1,508.127
1,easy,156,8,0,305.865
1,easy,156,9,1,653.453
1,easy,156,10,0,323.623
1,easy,157,1,1,544.396
1,easy,157,2,0,242.455
1,easy,157,3,0,330.093
1,easy,157,4,1,193.845
1,easy,157,5,0,456.134
1,easy,157,6,0,409.531
1,easy,157,7,0,847.756
1,easy,157,8,0,307.242
1,easy,157,9,1,577.352
1,easy,157,10,1,286.936
1,easy,158,1,1,457.652
1,easy,158,2,0,214.853
1,easy,158,3,1,271.669
1,easy,158,4,1,201.391
1,easy,158,5,1,265.538
1,easy,158,6,0,364.908
1,easy,158,7,0,594.36
1,easy,158,8,1,273.985
1,easy,158,9,1,547.494
1,easy,158,10,1,284.956
1,easy,159,1,1,515.172
1,easy,159,2,0,236.182
1,easy,159,3,1,307.38
1,easy,159,4,1,197.445
1,easy,159,5,1,245.886
1,easy,159,6,1,309.438
1,easy,159,7,0,676.233
1,easy,159,8,0,351.688
1,easy,159,9,1,693.701
1,easy,159,10,0,324.16
1,easy,160,1,1,577.93
1,easy,160,2,0,271.575
1,easy,160,3,0,358.226
1,easy,160,4,0,231.166
1,easy,160,5,1,276.582
1,easy,160,6,0,345.156
1,easy,160,7,1,475.133
1,easy,160,8,0,482.511
1,easy,160,9,1,568.248
1,easy,160,10,0,333.014
1,easy,161,1,1,466.841
1,easy,161,2,0,215.821
1,easy,161,3,0,329.027
1,easy,161,4,0,276.177
1,easy,161,5,1,314.331
1,easy,161,6,0,406.591
1,easy,161,7,1,509.651
1,easy,161,8,0,297.557
1,easy,161,9,0,757.875
1,easy,161,10,1,293.661
1,easy,162,1,0,672.306
1,easy,162,2,0,195.133
1,easy,162,3,1,281.941
1,easy,162,4,0,216.716
1,easy,162,5,1,337.345
1,easy,162,6,0,445.637
1,easy,162,7,1,534.193
1,easy,162,8,1,258.206
1,easy,162,9,1,720.415
1,easy,162,10,1,274.136
1,easy,163,1,0,768.24
1,easy,163,2,1,180.496
1,easy,163,3,1,245.979
1,easy,163,4,0,224.383
1,easy,163,5,0,324.749
1,easy,163,6,0,427.468
1,easy,163,7,1,525.897
1,easy,163,8,0,361.74
1,easy,163,9,1,698.188
1,easy,163,10,0,396.417
1,easy,164,1,1,797.961
1,easy,164,2,0,236.793
1,easy,164,3,1,337.292
1,easy,164,4,1,224.408
1,easy,164,5,0,349.242
1,easy,164,6,1,287.868
1,easy,164,7,1,612.52
1,easy,164,8,0,309.569
1,easy,164,9,1,716.183
1,easy,164,10,0,309.289
1,easy,165,1,1,520.3
1,easy,165,2,0,235.952
1,easy,165,3,0,336.654
1,easy,165,4,1,209.549
1,easy,165,5,0,323.785
1,easy,165,6,1,323.269
1,easy,165,7,1,578.275
1,easy,165,8,0,327.262
1,easy,165,9,1,568.57
1,easy,165,10,1,301.255
1,easy,166,1,1,578.083
1,easy,166,2,0,276.5
1,easy,166,3,0,331.94
1,easy,166,4,0,208.091
1,easy,166,5,1,283.293
1,easy,166,6,1,333.905
1,easy,166,7,1,510.331
1,easy,166,8,0,348.156
1,easy,166,9,1,567.857
1,easy,166,10,1,273.131
1,easy,167,1,1,542.963
1,easy,167,2,0,262.615
1,easy,167,3,0,450.639
1,easy,167,4,0,214.047
1,easy,167,5,0,271.235
1,easy,167,6,1,301.757
1,easy,167,7,1,591.222
1,easy,167,8,0,273.536
1,easy,167,9,0,672.201
1,easy,167,10,1,289.925
1,easy,168,1,1,722.79
1,easy,168,2,0,272.145
1,easy,168,3,0,306.645
1,easy,168,4,1,212.145
1,easy,168,5,0,335.832
1,easy,168,6,0,351.143
1,easy,168,7,1,500.788
1,easy,168,8,0,348.829
1,easy,168,9,1,605.476
1,easy,168,10,1,288.623
1,easy,169,1,1,603.773
1,easy,169,2,1,161.719
1,easy,169,3,1,297.123
1,easy,169,4,1,190.051
1,easy,169,5,1,289.694
1,easy,169,6,0,322.56
1,easy,169,7,1,500.774
1,easy,169,8,0,376.297
1,easy,169,9,1,577.855
1,easy,169,10,0,370.724
1,easy,170,1,0,710.856
1,easy,170,2,0,213.357
1,easy,170,3,1,310.17
1,easy,170,4,1,166.638
1,easy,170,5,0,296.519
1,easy,170,6,0,333.874
1,easy,170,7,1,637.207
1,easy,170,8,0,337.432
1,easy,170,9,1,654.574
1,easy,170,10,0,380.669
1,easy,171,1,1,542.843
1,easy,171,2,0,254.503
1,easy,171,3,0,373.056
1,easy,171,4,1,214.077
1,easy,171,5,0,278.484
1,easy,171,6,1,302.685
1,easy,171,7,0,638.047
1,easy,171,8,0,302.737
1,easy,171,9,1,674.869
1,easy,171,10,1,243.545
1,easy,172,1,1,593.993
1,easy,172,2,0,203.565
1,easy,172,3,1,315.91
1,easy,172,4,0,285.185
1,easy,172,5,0,304.341
1,easy,172,6,0,311.029
1,easy,172,7,1,445.806
1,easy,172,8,0,303.307
1,easy,172,9,0,731.403
1,easy,172,10,0,341.889
1,easy,173,1,1,559.771
1,easy,173,2,0,201.457
1,easy,173,3,1,300.287
1,easy,173,4,0,282.27
1,easy,173,5,0,322.154
1,easy,173,6,0,444.353
1,easy,173,7,0,683.665
1,easy,173,8,1,256.01
1,easy,173,9,1,782.324
1,easy,173,10,0,303.393
1,easy,174,1,1,609.126
1,easy,174,2,0,209.251
1,easy,174,3,0,347.15
1,easy,174,4,0,235.408
1,easy,174,5,1,267.04
1,easy,174,6,1,344.174
1,easy,174,7,1,575.835
1,easy,174,8,0,385.535
1,easy,174,9,1,679.409
1,easy,174,10,1,297.916
1,easy,175,1,1,612.683
1,easy,175,2,0,252.713
1,easy,175,3,1,280.595
1,easy,175,4,1,256.88
1,easy,175,5,1,231.985
1,easy,175,6,0,321.827
1,easy,175,7,1,440.684
1,easy,175,8,0,310.946
1,easy,175,9,1,715.973
1,easy,175,10,1,276.746
1,easy,176,1,0,615.849
1,easy,176,2,0,263.809
1,easy,176,3,0,344.538
1,easy,176,4,0,248.886
1,easy,176,5,1,245.448
1,easy,176,6,0,317.65
1,easy,176,7,1,507.216
1,easy,176,8,0,290.351
1,easy,176,9,1,766.56
1,easy,176,10,1,261.587
1,easy,177,1,0,639.301
1,easy,177,2,0,242.808
1,easy,177,3,1,277.431
1,easy,177,4,1,214.189
1,easy,177,5,0,352.903
1,easy,177,6,1,323.734
1,easy,177,7,1,537.131
1,easy,177,8,0,300.613
1,easy,177,9,1,697.727
1,easy,177,10,1,324.202
1,easy,178,1,1,578.595
1,easy,178,2,0,245.829
1,easy,178,3,0,361.228
1,easy,178,4,1,193.928
1,easy,178,5,1,281.685
1,easy,178,6,0,362.116
1,easy,178,7,0,626.587
1,easy,178,8,0,302.757
1,easy,178,9,1,609.2
1,easy,178,10,1,272.55
1,easy,179,1,1,570.005
1,easy,179,2,0,208.081
1,easy,179,3,1,278.079
1,easy,179,4,1,176.287
1,easy,179,5,1,263.459
1,easy,179,6,0,414.916
1,easy,179,7,0,835.253
1,easy,179,8,0,288.751
1,easy,179,9,1,689.385
1,easy,179,10,1,273.869
1,easy,180,1,1,513.55
1,easy,180,2,0,242.645
1,easy,180,3,1,269.83
1,easy,180,4,0,268.568
1,easy,180,5,1,267.371
1,easy,180,6,0,322.181
1,easy,180,7,1,584.329
1,easy,180,8,0,364.471
1,easy,180,9,1,678.268
1,easy,180,10,0,302.746
1,easy,181,1,1,547.31
1,easy,181,2,0,247.088
1,easy,181,3,1,265.44
1,easy,181,4,1,212.631
1,easy,181,5,0,308.339
1,easy,181,6,1,287.806
1,easy,181,7,1,533.528
1,easy,181,8,0,323.235
1,easy,181,9,0,747.513
1,easy,181,10,1,293.318
1,easy,182,1,1,507.01
1,easy,182,2,0,244.016
1,easy,182,3,1,276.544
1,easy,182,4,0,231.864
1,easy,182,5,1,246.541
1,easy,182,6,1,328.407
1,easy,182,7,0,723.171
1,easy,182,8,0,363.099
1,easy,182,9,1,580.833
1,easy,182,10,0,371.802
1,easy,183,1,1,677.595
1,easy,183,2,0,269.621
1,easy,183,3,1,312.97
1,easy,183,4,1,226.459
1,easy,183,5,1,303.967
1,easy,183,6,0,423.298
1,easy,183,7,1,460.899
1,easy,183,8,0,314.603
1,easy,183,9,1,695.518
1,easy,183,10,0,327.296
1,easy,184,1,1,576.04
1,easy,184,2,0,257.805
1,easy,184,3,0,374.585
1,easy,184,4,1,205.658
1,easy,184,5,1,228.268
1,easy,184,6,0,376.016
1,easy,184,7,1,619.142
1,easy,184,8,0,369.371
1,easy,184,9,0,785.007
1,easy,184,10,1,311.66
1,easy,185,1,1,513.318
1,easy,185,2,0,234.486
1,easy,185,3,0,338.027
1,easy,185,4,1,212.337
1,easy,185,5,0,304.812
1,easy,185,6,0,396.253
1,easy,185,7,1,490.637
1,easy,185,8,0,375.99
1,easy,185,9,1,620.579
1,easy,185,10,1,307.81
1,easy,186,1,0,738.007
1,easy,186,2,0,258.204
1,easy,186,3,0,370.605
1,easy,186,4,1,204.199
1,easy,186,5,1,254.941
1,easy,186,6,0,423.286
1,easy,186,7,0,697.172
1,easy,186,8,0,313.118
1,easy,186,9,1,721.543
1,easy,186,10,1,283.612
1,easy,187,1,1,583.05
1,easy,187,2,0,191.025
1,easy,187,3,1,276.871
1,easy,187,4,0,262.676
1,easy,187,5,1,255.94
1,easy,187,6,1,346.311
1,easy,187,7,0,568.887
1,easy,187,8,0,319.287
1,easy,187,9,1,659.496
1,easy,187,10,0,370.203
1,easy,188,1,1,633.35
1,easy,188,2,0,248.442
1,easy,188,3,0,335.362
1,easy,188,4,0,234.203
1,easy,188,5,0,302.282
1,easy,188,6,0,363.88
1,easy,188,7,0,645.768
1,easy,188,8,0,338.211
1,easy,188,9,1,597.952
1,easy,188,10,0,395.372
1,easy,189,1,1,460.71
1,easy,189,2,0,175.192
1,easy,189,3,1,254.465
1,easy,189,4,1,225.733
1,easy,189,5,1,261.491
1,easy,189,6,0,377.041
1,easy,189,7,1,507.017
1,easy,189,8,0,324.582
1,easy,189,9,1,738.749
1,easy,189,10,1,285.772
1,easy,190,1,1,606.379
1,easy,190,2,0,211.86
1,easy,190,3,0,310.043
1,easy,190,4,0,247.909
1,easy,190,5,0,352.362
1,easy,190,6,0,375.214
1,easy,190,7,1,588.801
1,easy,190,8,0,346.559
1,easy,190,9,0,888.711
1,easy,190,10,0,403.595
1,easy,191,1,0,694.265
1,easy,191,2,0,230.168
1,easy,191,3,1,330.933
1,easy,191,4,0,251.146
1,easy,191,5,1,282.192
1,easy,191,6,0,377.986
1,easy,191,7,1,564.021
1,easy,191,8,0,329.45
1,easy,191,9,1,598.37
1,easy,191,10,1,294.939
1,easy,192,1,1,539.137
1,easy,192,2,0,229.534
1,easy,192,3,0,377.145
1,easy,192,4,0,264.607
1,easy,192,5,1,255.359
1,easy,192,6,0,407.001
1,easy,192,7,1,472.214
1,easy,192,8,0,384.578
1,easy,192,9,1,646.868
1,easy,192,10,1,274.391
1,easy,193,1,1,510.794
1,easy,193,2,0,254.672
1,easy,193,3,1,284.961
1,easy,193,4,0,254.184
1,easy,193,5,1,255.663
1,easy,193,6,0,480.944
1,easy,193,7,0,569.224
1,easy,193,8,0,345.907
1,easy,193,9,1,599.344
1,easy,193,10,0,359.016
1,easy,194,1,1,545.636
1,easy,194,2,0,256.6
1,easy,194,3,0,396.557
1,easy,194,4,0,281.372
1,easy,194,5,1,262.243
1,easy,194,6,1,251.457
1,easy,194,7,1,486.123
1,easy,194,8,0,330.149
1,easy,194,9,1,768.037
1,easy,194,10,1,287.193
1,easy,195,1,0,723.875
1,easy,195,2,0,239.598
1,easy,195,3,1,305.26
1,easy,195,4,1,232.148
1,easy,195,5,1,262.057
1,easy,195,6,0,375.745
1,easy,195,7,1,519.797
1,easy,195,8,0,351.869
1,easy,195,9,0,833.042
1,easy,195,10,0,354.833
1,easy,196,1,1,575.91
1,easy,196,2,0,193.533
1,easy,196,3,0,333.079
1,easy,196,4,0,275.715
1,easy,196,5,0,384.521
1,easy,196,6,1,298.979
1,easy,196,7,0,635.783
1,easy,196,8,0,370.346
1,easy,196,9,1,616.177
1,easy,196,10,0,414.639
1,easy,197,1,1,511.417
1,easy,197,2,0,229.144
1,easy,197,3,1,257.014
1,easy,197,4,0,300.007
1,easy,197,5,1,276.45
1,easy,197,6,0,384.949
1,easy,197,7,1,607.997
1,easy,197,8,0,300.657
1,easy,197,9,1,626.503
1,easy,197,10,1,264.472
1,easy,198,1,1,640.769
1,easy,198,2,0,205.51
1,easy,198,3,0,329.351
1,easy,198,4,1,218.032
1,easy,198,5,1,305.628
1,easy,198,6,0,332.527
1,easy,198,7,1,549.427
1,easy,198,8,0,353.652
1,easy,198,9,0,990.503
1,easy,198,10,1,299.413
1,easy,199,1,1,586.026
1,easy,199,2,0,286.235
1,easy,199,3,1,312.114
1,easy,199,4,1,212.144
1,easy,199,5,0,323.322
1,easy,199,6,0,360.352
1,easy,199,7,0,629.401
1,easy,199,8,0,336.727
1,easy,199,9,0,840.274
1,easy,199,10,0,382.741
1,easy,200,1,1,537.073
1,easy,200,2,0,232.023
1,easy,200,3,1,280.368
1,easy,200,4,1,201.074
1,easy,200,5,1,311.335
1,easy,200,6,1,307.012
1,easy,200,7,0,640.04
1,easy,200,8,0,476.422
1,easy,200,9,1,793.455
1,easy,200,10,0,358.583
1,easy,201,1,1,531.045
1,easy,201,2,0,233.981
1,easy,201,3,0,330.457
1,easy,201,4,0,248.249
1,easy,201,5,1,234.25
1,easy,201,6,1,348.62
1,easy,201,7,1,489.859
1,easy,201,8,0,279.718
1,easy,201,9,1,686.526
1,easy,201,10,0,381.563
1,easy,202,1,1,613.696
1,easy,202,2,0,247.347
1,easy,202,3,1,263.877
1,easy,202,4,1,214.506
1,easy,202,5,1,228.814
1,easy,202,6,0,431.178
1,easy,202,7,1,496.488
1,easy,202,8,0,305.397
1,easy,202,9,0,761.219
1,easy,202,10,1,316.781
1,easy,203,1,1,448.195
1,easy,203,2,0,220.458
1,easy,203,3,1,282.869
1,easy,203,4,1,220.849
1,easy,203,5,1,237.904
1,easy,203,6,0,389.552
1,easy,203,7,1,643.134
1,easy,203,8,0,320.579
1,easy,203,9,1,736.627
1,easy,203,10,0,307.328
1,easy,204,1,1,536.451
1,easy,204,2,0,230.351
1,easy,204,3,0,346.433
1,easy,204,4,1,181.38
1,easy,204,5,0,339.541
1,easy,204,6,0,389.918
1,easy,204,7,0,659.666
1,easy,204,8,0,325.976
1,easy,204,9,1,713.453
1,easy,204,10,1,231.643
1,easy,205,1,1,600.499
1,easy,205,2,0,223.168
1,easy,205,3,0,334.93
1,easy,205,4,1,222.953
1,easy,205,5,0,364.163
1,easy,205,6,0,380.042
1,easy,205,7,0,601.084
1,easy,205,8,1,249.473
1,easy,205,9,1,644.248
1,easy,205,10,0,373.305
1,easy,206,1,0,590.104
1,easy,206,2,0,208.251
1,easy,206,3,0,381.635
1,easy,206,4,0,210.933
1,easy,206,5,0,331.354
1,easy,206,6,0,465.869
1,easy,206,7,1,529.053
1,easy,206,8,1,266.915
1,easy,206,9,1,570.503
1,easy,206,10,0,359.43
1,easy,207,1,1,532.905
1,easy,207,2,0,251.559
1,easy,207,3,0,295.402
1,easy,207,4,0,272.126
1,easy,207,5,0,307.555
1,easy,207,6,0,379.786
1,easy,207,7,0,712.151
1,easy,207,8,0,376.794
1,easy,207,9,1,545.003
1,easy,207,10,0,337.61
1,easy,208,1,0,629.687
1,easy,208,2,0,264.511
1,easy,208,3,1,304.129
1,easy,208,4,1,205.385
1,easy,208,5,1,282.876
1,easy,208,6,0,322.658
1,easy,208,7,1,616.015
1,easy,208,8,0,296.514
1,easy,208,9,1,644.013
1,easy,208,10,0,318.78
1,easy,209,1,1,622.804
1,easy,209,2,0,273.86
1,easy,209,3,0,422.209
1,easy,209,4,1,207.208
1,easy,209,5,1,217.528
1,easy,209,6,0,378.731
1,easy,209,7,1,560.504
1,easy,209,8,0,349.267
1,easy,209,9,1,590.934
1,easy,209,10,1,283.603
1,easy,210,1,1,511.714
1,easy,210,2,0,210.615
1,easy,210,3,1,301.088
1,easy,210,4,1,178.341
1,easy,210,5,0,310.467
1,easy,210,6,0,409.677
1,easy,210,7,1,552.554
1,easy,210,8,0,320.018
1,easy,210,9,1,710.864
1,easy,210,10,1,323.753
1,easy,211,1,0,727.926
1,easy,211,2,0,208.872
1,easy,211,3,0,323.203
1,easy,211,4,1,183.134
1,easy,211,5,1,207.547
1,easy,211,6,0,433.095
1,easy,211,7,1,608.622
1,easy,211,8,0,310.363
1,easy,211,9,1,784.295
1,easy,211,10,0,363.166
1,easy,212,1,1,651.469
1,easy,212,2,0,257.462
1,easy,212,3,0,386.308
1,easy,212,4,0,265.501
1,easy,212,5,1,268.331
1,easy,212,6,0,401.075
1,easy,212,7,1,622.874
1,easy,212,8,0,349.274
1,easy,212,9,1,643.057
1,easy,212,10,1,273.696
1,easy,213,1,1,573.386
1,easy,213,2,1,181.914
1,easy,213,3,0,306.582
1,easy,213,4,1,221.741
1,easy,213,5,1,277.697
1,easy,213,6,1,262.985
1,easy,213,7,1,639.617
1,easy,213,8,0,378.82
1,easy,213,9,0,1064.468
1,easy,213,10,1,293.083
1,easy,214,1,1,524.745
1,easy,214,2,0,270.534
1,easy,214,3,1,271.03
1,easy,214,4,0,230.629
1,easy,214,5,1,235.745
1,easy,214,6,0,414.736
1,easy,214,7,1,507.334
1,easy,214,8,0,388.949
1,easy,214,9,0,930.833
1,easy,214,10,1,279.409
1,easy,215,1,1,600.095
1,easy,215,2,1,209.693
1,easy,215,3,0,362.04
1,easy,215,4,1,195.426
1,easy,215,5,1,249.991
1,easy,215,6,0,363.697
1,easy,215,7,1,515.33
1,easy,215,8,0,328.703
1,easy,215,9,1,571.55
1,easy,215,10,0,353.966
1,easy,216,1,1,626.878
1,easy,216,2,1,149.593
1,easy,216,3,1,308.31
1,easy,216,4,0,260.141
1,easy,216,5,0,346.768
1,easy,216,6,1,335.572
1,easy,216,7,1,550.28
1,easy,216,8,0,383.017
1,easy,216,9,0,887.624
1,easy,216,10,1,251.999
1,easy,217,1,1,477.519
1,easy,217,2,0,187.162
1,easy,217,3,0,349.125
1,easy,217,4,0,281.98
1,easy,217,5,1,254.565
1,easy,217,6,0,397.411
1,easy,217,7,1,525.088
1,easy,217,8,0,337.452
1,easy,217,9,1,706.507
1,easy,217,10,1,293.145
1,easy,218,1,1,721.362
1,easy,218,2,1,205.208
1,easy,218,3,1,292.994
1,easy,218,4,1,190.255
1,easy,218,5,0,327.155
1,easy,218,6,1,275.41
1,easy,218,7,1,596.72
1,easy,218,8,0,337.276
1,easy,218,9,1,654.58
1,easy,218,10,1,281.531
1,easy,219,1,1,610.674
1,easy,219,2,0,231.769
1,easy,219,3,1,338.37
1,easy,219,4,0,285.043
1,easy,219,5,0,305.062
1,easy,219,6,0,426.899
1,easy,219,7,1,524.252
1,easy,219,8,0,329.876
1,easy,219,9,0,808.816
1,easy,219,10,0,354.099
1,easy,220,1,1,463.171
1,easy,220,2,0,268.936
1,easy,220,3,0,405.133
1,easy,220,4,0,248.946
1,easy,220,5,1,279.89
1,easy,220,6,0,382.976
1,easy,220,7,1,560.586
1,easy,220,8,0,349.478
1,easy,220,9,0,847.049
1,easy,220,10,1,263.763
1,easy,221,1,1,430.251
1,easy,221,2,0,211.427
1,easy,221,3,0,466.882
1,easy,221,4,1,227.669
1,easy,221,5,1,301.53
1,easy,221,6,0,349.249
1,easy,221,7,1,484.826
1,easy,221,8,0,312.672
1,easy,221,9,1,642.032
1,easy,221,10,1,254.586
1,easy,222,1,1,683.518
1,easy,222,2,1,163.745
1,easy,222,3,1,279.499
1,easy,222,4,1,221.019
1,easy,222,5,0,299.335
1,easy,222,6,0,375.669
1,easy,222,7,1,524.652
1,easy,222,8,0,385.006
1,easy,222,9,1,664.872
1,easy,222,10,1,341.726
1,easy,223,1,1,509.258
1,easy,223,2,1,165.686
1,easy,223,3,0,329.576
1,easy,223,4,1,210.403
1,easy,223,5,1,264.875
1,easy,223,6,0,430.925
1,easy,223,7,1,509.08
1,easy,223,8,0,310.524
1,easy,223,9,1,689.47
1,easy,223,10,1,273.454
1,easy,224,1,1,598.303
1,easy,224,2,0,242.53
1,easy,224,3,0,356.025
1,easy,224,4,1,191.63
1,easy,224,5,1,242.23
1,easy,224,6,1,330.6
1,easy,224,7,1,591.038
1,easy,224,8,0,310.967
1,easy,224,9,1,631.565
1,easy,224,10,1,279.096
1,easy,225,1,1,573.335
1,easy,225,2,0,217.735
1,easy,225,3,0,329.647
1,easy,225,4,1,267.988
1,easy,225,5,1,243.639
1,easy,225,6,0,399.975
1,easy,225,7,1,527.708
1,easy,225,8,0,344.269
1,easy,225,9,1,730.137
1,easy,225,10,1,285.543
1,easy,226,1,1,539.322
1,easy,226,2,0,281.42
1,easy,226,3,0,354.839
1,easy,226,4,1,221.72
1,easy,226,5,0,290.019
1,easy,226,6,0,326.371
1,easy,226,7,1,561.606
1,easy,226,8,0,380.327
1,easy,226,9,0,766.776
1,easy,226,10,0,367.089
1,easy,227,1,1,549.172
1,easy,227,2,0,248.373
1,easy,227,3,0,309.029
1,easy,227,4,1,218.193
1,easy,227,5,1,296.794
1,easy,227,6,0,388.553
1,easy,227,7,0,729.252
1,easy,227,8,0,318.43
1,easy,227,9,0,751.497
1,easy,227,10,0,264.363
1,easy,228,1,1,521.349
1,easy,228,2,1,188.392
1,easy,228,3,0,323.492
1,easy,228,4,1,202.251
1,easy,228,5,1,251.979
1,easy,228,6,0,439.316
1,easy,228,7,1,579.529
1,easy,228,8,0,332.257
1,easy,228,9,1,681.121
1,easy,228,10,1,301.996
1,easy,229,1,1,475.951
1,easy,229,2,0,254.366
1,easy,229,3,1,243.206
1,easy,229,4,1,205.32
1,easy,229,5,1,284.189
1,easy,229,6,0,413.329
1,easy,229,7,1,585.972
1,easy,229,8,0,340.666
1,easy,229,9,1,629.863
1,easy,229,10,0,369.263
1,easy,230,1,1,619.326
1,easy,230,2,0,256.048
1,easy,230,3,1,309.651
1,easy,230,4,1,247.637
1,easy,230,5,0,382.638
1,easy,230,6,0,373.765
1,easy,230,7,0,675.729
1,easy,230,8,1,245.004
1,easy,230,9,0,660.547
1,easy,230,10,1,252.416
1,easy,231,1,1,519.326
1,easy,231,2,0,221.22
1,easy,231,3,1,331.953
1,easy,231,4,0,202.147
1,easy,231,5,1,294.347
1,easy,231,6,0,358.563
1,easy,231,7,1,561.729
1,easy,231,8,1,293.536
1,easy,231,9,1,737.05
1,easy,231,10,1,275.146
1,easy,232,1,1,607.994
1,easy,232,2,0,244.875
1,easy,232,3,1,309.17
1,easy,232,4,0,246.169
1,easy,232,5,0,365.225
1,easy,232,6,0,345.328
1,easy,232,7,1,530.764
1,easy,232,8,0,335.799
1,easy,232,9,1,701.17
1,easy,232,10,0,377.858
1,easy,233,1,1,580.408
1,easy,233,2,1,207.785
1,easy,233,3,0,431.4
1,easy,233,4,0,243.43
1,easy,233,5,0,271.05
1,easy,233,6,0,315.904
1,easy,233,7,1,488.866
1,easy,233,8,0,387.287
1,easy,233,9,1,749.606
1,easy,233,10,1,286.389
1,easy,234,1,1,467.462
1,easy,234,2,1,184.473
1,easy,234,3,1,312.27
1,easy,234,4,0,255.48
1,easy,234,5,1,307.211
1,easy,234,6,0,407.66
1,easy,234,7,1,527.526
1,easy,234,8,0,317.974
1,easy,234,9,1,647.126
1,easy,234,10,1,268.207
1,easy,235,1,1,651.031
1,easy,235,2,0,237.625
1,easy,235,3,0,422.058
1,easy,235,4,1,214.059
1,easy,235,5,1,241.914
1,easy,235,6,0,309.275
1,easy,235,7,0,745.784
1,easy,235,8,0,287.888
1,easy,235,9,1,782.755
1,easy,235,10,1,283.623
1,easy,236,1,1,586.018
1,easy,236,2,0,184.573
1,easy,236,3,0,385.715
1,easy,236,4,0,304.506
1,easy,236,5,1,275.197
1,easy,236,6,0,436.649
1,easy,236,7,1,550.377
1,easy,236,8,0,335.208
1,easy,236,9,1,702.543
1,easy,236,10,1,364.647
1,easy,237,1,1,577.582
1,easy,237,2,1,213.597
1,easy,237,3,1,245.768
1,easy,237,4,0,274.62
1,easy,237,5,0,330.476
1,easy,237,6,0,369.135
1,easy,237,7,0,610.248
1,easy,237,8,0,385.627
1,easy,237,9,1,604.353
1,easy,237,10,1,272.652
1,easy,238,1,0,624.12
1,easy,238,2,0,292.84
1,easy,238,3,1,252.493
1,easy,238,4,1,201.1
1,easy,238,5,1,250.643
1,easy,238,6,1,230.746
1,easy,238,7,1,514.325
1,easy,238,8,0,372.187
1,easy,238,9,1,837.431
1,easy,238,10,0,412.741
1,easy,239,1,1,535.95
1,easy,239,2,0,239.322
1,easy,239,3,1,336.685
1,easy,239,4,0,208.631
1,easy,239,5,0,302.696
1,easy,239,6,0,335.424
1,easy,239,7,1,446.341
1,easy,239,8,0,345.735
1,easy,239,9,1,814.878
1,easy,239,10,1,279.393
1,easy,240,1,1,584.937
1,easy,240,2,0,226.049
1,easy,240,3,0,302.421
1,easy,240,4,1,210.252
1,easy,240,5,0,352.842
1,easy,240,6,0,388.625
1,easy,240,7,1,691.343
1,easy,240,8,0,296.573
1,easy,240,9,1,560.799
1,easy,240,10,1,344.391
1,hard,1,1,1,673.821
1,hard,1,2,1,249.281
1,hard,1,3,1,293.945
1,hard,1,4,1,277.892
1,hard,1,5,1,295.786
1,hard,1,6,0,411.578
1,hard,1,7,1,671.153
1,hard,1,8,1,343.137
1,hard,1,9,0,842.504
1,hard,1,10,1,356.963
1,hard,2,1,1,646.049
1,hard,2,2,0,287.295
1,hard,2,3,0,409.48
1,hard,2,4,1,257.019
1,hard,2,5,1,328.28
1,hard,2,6,0,519.952
1,hard,2,7,0,799.066
1,hard,2,8,0,406.276
1,hard,2,9,1,678.389
1,hard,2,10,0,455.615
1,hard,3,1,1,734.141
1,hard,3,2,0,243.238
1,hard,3,3,1,353.188
1,hard,3,4,0,290.243
1,hard,3,5,0,397.328
1,hard,3,6,1,301.13
1,hard,3,7,1,597.465
1,hard,3,8,0,370.388
1,hard,3,9,1,774.877
1,hard,3,10,1,318.999
1,hard,4,1,1,690.814
1,hard,4,2,0,297.269
1,hard,4,3,0,432.107
1,hard,4,4,1,239.201
1,hard,4,5,0,439.798
1,hard,4,6,1,358.436
1,hard,4,7,0,669.846
1,hard,4,8,0,333.601
1,hard,4,9,1,746.142
1,hard,4,10,0,430.846
1,hard,5,1,1,678.411
1,hard,5,2,0,249.397
1,hard,5,3,1,390.809
1,hard,5,4,0,381.44
1,hard,5,5,0,382.517
1,hard,5,6,1,373.81
1,hard,5,7,1,621.75
1,hard,5,8,0,371.597
1,hard,5,9,1,913.741
1,hard,5,10,0,390.333
1,hard,6,1,1,664.234
1,hard,6,2,0,275.631
1,hard,6,3,0,356.213
1,hard,6,4,0,269.745
1,hard,6,5,1,331.228
1,hard,6,6,0,432.964
1,hard,6,7,0,834.209
1,hard,6,8,0,426.669
1,hard,6,9,0,796.269
1,hard,6,10,0,501.59
1,hard,7,1,1,827.906
1,hard,7,2,0,276.278
1,hard,7,3,1,351.041
1,hard,7,4,0,299.296
1,hard,7,5,0,378.239
1,hard,7,6,0,440.402
1,hard,7,7,0,712.68
1,hard,7,8,0,384.21
1,hard,7,9,1,878.468
1,hard,7,10,0,481.379
1,hard,8,1,1,700.309
1,hard,8,2,0,249.113
1,hard,8,3,0,445.274
1,hard,8,4,0,289.723
1,hard,8,5,0,386.083
1,hard,8,6,0,410.227
1,hard,8,7,1,608.188
1,hard,8,8,0,447.781
1,hard,8,9,1,861.822
1,hard,8,10,1,367.015
1,hard,9,1,1,653.503
1,hard,9,2,0,292.925
1,hard,9,3,1,309.998
1,hard,9,4,1,243.207
1,hard,9,5,1,311.909
1,hard,9,6,0,435.172
1,hard,9,7,1,546.316
1,hard,9,8,1,319.569
1,hard,9,9,1,742.938
1,hard,9,10,1,298.455
1,hard,10,1,1,657.412
1,hard,10,2,0,291.237
1,hard,10,3,0,325.825
1,hard,10,4,0,333.827
1,hard,10,5,1,300.654
1,hard,10,6,0,459.577
1,hard,10,7,1,705.935
1,hard,10,8,0,418.122
1,hard,10,9,1,688.013
1,hard,10,10,0,475.008
1,hard,11,1,1,686.88
1,hard,11,2,0,290.57
1,hard,11,3,0,387.912
1,hard,11,4,1,252.574
1,hard,11,5,0,470.001
1,hard,11,6,1,398.26
1,hard,11,7,1,674.813
1,hard,11,8,0,382.367
1,hard,11,9,1,771.751
1,hard,11,10,0,491.782
1,hard,12,1,1,679.9
1,hard,12,2,0,270.134
1,hard,12,3,0,424.362
1,hard,12,4,0,294.392
1,hard,12,5,1,294.314
1,hard,12,6,0,483.549
1,hard,12,7,1,526.762
1,hard,12,8,0,382.85
1,hard,12,9,1,909.675
1,hard,12,10,1,307.145
1,hard,13,1,1,765.482
1,hard,13,2,0,335.81
1,hard,13,3,0,399.923
1,hard,13,4,1,279.391
1,hard,13,5,1,318.087
1,hard,13,6,0,552.016
1,hard,13,7,1,560.286
1,hard,13,8,0,424.249
1,hard,13,9,0,832.962
1,hard,13,10,1,336.452
1,hard,14,1,1,709.952
1,hard,14,2,0,283.255
1,hard,14,3,0,341.86
1,hard,14,4,0,281.332
1,hard,14,5,0,362.472
1,hard,14,6,0,433.385
1,hard,14,7,0,776.477
1,hard,14,8,0,422.014
1,hard,14,9,1,817.71
1,hard,14,10,1,353.615
1,hard,15,1,1,537.703
1,hard,15,2,0,229.777
1,hard,15,3,0,419.545
1,hard,15,4,1,253.164
1,hard,15,5,1,314.258
1,hard,15,6,0,417.545
1,hard,15,7,1,599.76
1,hard,15,8,0,373.239
1,hard,15,9,1,809.321
1,hard,15,10,1,324.466
1,hard,16,1,0,716.323
1,hard,16,2,0,257.316
1,hard,16,3,0,404.51
1,hard,16,4,0,304.57
1,hard,16,5,1,278.368
1,hard,16,6,0,424.234
1,hard,16,7,1,549.815
1,hard,16,8,0,342.731
1,hard,16,9,1,746.604
1,hard,16,10,1,353.421
1,hard,17,1,1,780.346
1,hard,17,2,0,234.899
1,hard,17,3,1,331.268
1,hard,17,4,1,235.291
1,hard,17,5,1,302.774
1,hard,17,6,0,498.397
1,hard,17,7,1,577.027
1,hard,17,8,0,454.386
1,hard,17,9,1,804.354
1,hard,17,10,0,345.648
1,hard,18,1,1,900.887
1,hard,18,2,0,276.376
1,hard,18,3,1,329.774
1,hard,18,4,0,298.525
1,hard,18,5,1,292.763
1,hard,18,6,0,402.254
1,hard,18,7,0,765.687
1,hard,18,8,1,310.667
1,hard,18,9,0,930.228
1,hard,18,10,1,291.94
1,hard,19,1,1,668.445
1,hard,19,2,0,329.404
1,hard,19,3,1,346.083
1,hard,19,4,1,241.801
1,hard,19,5,0,416.12
1,hard,19,6,0,418.415
1,hard,19,7,1,594.669
1,hard,19,8,0,418.214
1,hard,19,9,1,705.939
1,hard,19,10,1,323.731
1,hard,20,1,1,643.12
1,hard,20,2,1,247.578
1,hard,20,3,1,320.935
1,hard,20,4,1,216.292
1,hard,20,5,1,269.553
1,hard,20,6,0,393.791
1,hard,20,7,0,817.668
1,hard,20,8,0,366.265
1,hard,20,9,0,970.076
1,hard,20,10,1,315.195
1,hard,21,1,1,646.613
1,hard,21,2,0,245.62
1,hard,21,3,1,316.594
1,hard,21,4,0,274.754
1,hard,21,5,1,279.71
1,hard,21,6,0,469.153
1,hard,21,7,0,764.904
1,hard,21,8,0,371.543
1,hard,21,9,0,905.884
1,hard,21,10,1,368.966
1,hard,22,1,1,680.946
1,hard,22,2,0,331.959
1,hard,22,3,0,408.481
1,hard,22,4,1,273.106
1,hard,22,5,1,312.176
1,hard,22,6,0,386.665
1,hard,22,7,0,782.124
1,hard,22,8,0,443.174
1,hard,22,9,0,1039.353
1,hard,22,10,0,432.861
1,hard,23,1,1,703.332
1,hard,23,2,1,193.167
1,hard,23,3,1,343.784
1,hard,23,4,1,302.143
1,hard,23,5,1,334.155
1,hard,23,6,0,521.646
1,hard,23,7,1,752.982
1,hard,23,8,0,389.326
1,hard,23,9,1,797.735
1,hard,23,10,0,501.549
1,hard,24,1,1,600.677
1,hard,24,2,0,254.075
1,hard,24,3,0,400.653
1,hard,24,4,0,322.076
1,hard,24,5,0,370.88
1,hard,24,6,0,458.74
1,hard,24,7,1,568.247
1,hard,24,8,0,404.115
1,hard,24,9,1,666.034
1,hard,24,10,1,372.408
1,hard,25,1,1,724.587
1,hard,25,2,0,229.853
1,hard,25,3,1,341.294
1,hard,25,4,0,354.647
1,hard,25,5,0,393.577
1,hard,25,6,1,354.712
1,hard,25,7,0,824.875
1,hard,25,8,0,408.166
1,hard,25,9,1,731.259
1,hard,25,10,0,419.648
1,hard,26,1,1,626.594
1,hard,26,2,0,272.94
1,hard,26,3,0,475.898
1,hard,26,4,0,291.077
1,hard,26,5,1,318.262
1,hard,26,6,0,505.239
1,hard,26,7,1,594.451
1,hard,26,8,1,275.426
1,hard,26,9,1,778.254
1,hard,26,10,0,472.246
1,hard,27,1,1,647.031
1,hard,27,2,1,228.511
1,hard,27,3,1,373.143
1,hard,27,4,1,213.316
1,hard,27,5,0,407.337
1,hard,27,6,0,413.938
1,hard,27,7,0,677.454
1,hard,27,8,0,404.122
1,hard,27,9,0,835.675
1,hard,27,10,0,353.123
1,hard,28,1,0,761.987
1,hard,28,2,0,270.373
1,hard,28,3,0,471.42
1,hard,28,4,1,219.707
1,hard,28,5,1,266.379
1,hard,28,6,0,352.351
1,hard,28,7,0,701.047
1,hard,28,8,0,403.667
1,hard,28,9,1,693.965
1,hard,28,10,1,335.805
1,hard,29,1,1,591.681
1,hard,29,2,0,302.384
1,hard,29,3,1,391.732
1,hard,29,4,1,291.215
1,hard,29,5,0,341.8
1,hard,29,6,0,391.109
1,hard,29,7,0,622.28
1,hard,29,8,0,384.309
1,hard,29,9,1,843.75
1,hard,29,10,0,437.747
1,hard,30,1,1,622.342
1,hard,30,2,0,272.074
1,hard,30,3,0,361.991
1,hard,30,4,0,257.214
1,hard,30,5,0,333.606
1,hard,30,6,1,404.068
1,hard,30,7,1,577.313
1,hard,30,8,0,397.224
1,hard,30,9,1,713.367
1,hard,30,10,1,312.85
1,hard,31,1,1,588.886
1,hard,31,2,0,290.314
1,hard,31,3,0,436.599
1,hard,31,4,1,242.039
1,hard,31,5,0,412.948
1,hard,31,6,0,419.575
1,hard,31,7,1,676.575
1,hard,31,8,0,392.493
1,hard,31,9,0,942.561
1,hard,31,10,1,338.12
1,hard,32,1,1,746.934
1,hard,32,2,0,245.011
1,hard,32,3,1,291.79
1,hard,32,4,1,240.455
1,hard,32,5,0,433.508
1,hard,32,6,0,409.792
1,hard,32,7,1,654.395
1,hard,32,8,0,432.967
1,hard,32,9,1,869.871
1,hard,32,10,1,280.474
1,hard,33,1,1,598.55
1,hard,33,2,1,214.84
1,hard,33,3,1,330.665
1,hard,33,4,0,298.352
1,hard,33,5,1,275.229
1,hard,33,6,0,518.605
1,hard,33,7,0,724.51
1,hard,33,8,0,426.743
1,hard,33,9,1,798.273
1,hard,33,10,1,351.59
1,hard,34,1,1,636.432
1,hard,34,2,0,285.26
1,hard,34,3,0,447.417
1,hard,34,4,1,218.188
1,hard,34,5,0,392.187
1,hard,34,6,0,520.004
1,hard,34,7,0,718.919
1,hard,34,8,0,347.839
1,hard,34,9,1,890.861
1,hard,34,10,1,372.208
1,hard,35,1,1,661.826
1,hard,35,2,0,249.219
1,hard,35,3,0,465.319
1,hard,35,4,0,237.277
1,hard,35,5,1,381.156
1,hard,35,6,0,466.546
1,hard,35,7,0,607.545
1,hard,35,8,0,416.617
1,hard,35,9,1,748.439
1,hard,35,10,0,464.414
1,hard,36,1,1,612.368
1,hard,36,2,0,314.63
1,hard,36,3,1,319.701
1,hard,36,4,0,333.786
1,hard,36,5,1,316.159
1,hard,36,6,0,447.966
1,hard,36,7,1,499.686
1,hard,36,8,0,388.427
1,hard,36,9,1,749.101
1,hard,36,10,0,491.414
1,hard,37,1,1,622.492
1,hard,37,2,0,243.29
1,hard,37,3,0,435.063
1,hard,37,4,0,273.372
1,hard,37,5,1,321.696
1,hard,37,6,0,470.249
1,hard,37,7,1,630.541
1,hard,37,8,0,297.282
1,hard,37,9,0,1021.041
1,hard,37,10,1,353.247
1,hard,38,1,0,861.719
1,hard,38,2,0,297.288
1,hard,38,3,1,307.756
1,hard,38,4,1,241.345
1,hard,38,5,0,398.972
1,hard,38,6,0,383.991
1,hard,38,7,1,746.332
1,hard,38,8,0,371.594
1,hard,38,9,1,712.118
1,hard,38,10,0,402.319
1,hard,39,1,1,665.605
1,hard,39,2,0,301.077
1,hard,39,3,1,315.051
1,hard,39,4,1,236.546
1,hard,39,5,1,339.258
1,hard,39,6,0,413.479
1,hard,39,7,1,646.843
1,hard,39,8,1,285.382
1,hard,39,9,1,787.146
1,hard,39,10,0,462.409
1,hard,40,1,1,617.383
1,hard,40,2,0,296.064
1,hard,40,3,0,391.071
1,hard,40,4,0,281.144
1,hard,40,5,1,342.527
1,hard,40,6,0,494.39
1,hard,40,7,1,621.638
1,hard,40,8,0,425.523
1,hard,40,9,1,832.201
1,hard,40,10,0,420.358
1,hard,41,1,1,631.306
1,hard,41,2,0,297.098
1,hard,41,3,1,319.591
1,hard,41,4,1,283.579
1,hard,41,5,1,304.288
1,hard,41,6,1,381.736
1,hard,41,7,0,894.25
1,hard,41,8,1,320.841
1,hard,41,9,1,815.913
1,hard,41,10,1,363.911
1,hard,42,1,1,676.988
1,hard,42,2,0,243.916
1,hard,42,3,1,312.001
1,hard,42,4,1,225.642
1,hard,42,5,0,392.515
1,hard,42,6,0,466.654
1,hard,42,7,1,665.99
1,hard,42,8,0,285.17
1,hard,42,9,1,810.581
1,hard,42,10,1,414.419
1,hard,43,1,1,635.222
1,hard,43,2,0,293.961
1,hard,43,3,0,494.786
1,hard,43,4,1,225.43
1,hard,43,5,0,429.209
1,hard,43,6,0,438.895
1,hard,43,7,0,852.25
1,hard,43,8,0,427.656
1,hard,43,9,0,908.852
1,hard,43,10,0,455.396
1,hard,44,1,1,690.916
1,hard,44,2,0,231.752
1,hard,44,3,1,350.285
1,hard,44,4,0,349.859
1,hard,44,5,1,369.512
1,hard,44,6,0,415.065
1,hard,44,7,1,572.628
1,hard,44,8,0,383.014
1,hard,44,9,0,970.48
1,hard,44,10,0,377.978
1,hard,45,1,1,700.189
1,hard,45,2,0,257.106
1,hard,45,3,1,331.892
1,hard,45,4,1,229.801
1,hard,45,5,1,299.226
1,hard,45,6,0,458.004
1,hard,45,7,1,564.378
1,hard,45,8,0,440.506
1,hard,45,9,1,788.593
1,hard,45,10,1,379.859
1,hard,46,1,1,653.818
1,hard,46,2,1,219.841
1,hard,46,3,0,488.202
1,hard,46,4,0,361.824
1,hard,46,5,1,335.249
1,hard,46,6,0,411.149
1,hard,46,7,0,683.261
1,hard,46,8,0,319.742
1,hard,46,9,0,948.882
1,hard,46,10,0,431.034
1,hard,47,1,1,510.713
1,hard,47,2,0,262.92
1,hard,47,3,1,330.885
1,hard,47,4,1,279.594
1,hard,47,5,1,309.085
1,hard,47,6,0,527.654
1,hard,47,7,1,571.777
1,hard,47,8,0,474.599
1,hard,47,9,1,670.079
1,hard,47,10,1,403.68
1,hard,48,1,1,705.765
1,hard,48,2,0,276.482
1,hard,48,3,1,301.298
1,hard,48,4,1,288.954
1,hard,48,5,1,288.334
1,hard,48,6,0,390.011
1,hard,48,7,1,788.9
1,hard,48,8,0,400.378
1,hard,48,9,1,847.254
1,hard,48,10,1,351.569
1,hard,49,1,1,771.863
1,hard,49,2,0,267.067
1,hard,49,3,0,479.663
1,hard,49,4,1,250.685
1,hard,49,5,1,293.003
1,hard,49,6,0,514.028
1,hard,49,7,1,642.965
1,hard,49,8,0,451.562
1,hard,49,9,1,700.84
1,hard,49,10,1,332.43
1,hard,50,1,1,562.152
1,hard,50,2,0,298.442
1,hard,50,3,0,447.499
1,hard,50,4,1,255.342
1,hard,50,5,1,329.709
1,hard,50,6,0,413.513
1,hard,50,7,1,730.205
1,hard,50,8,0,358.04
1,hard,50,9,0,847.096
1,hard,50,10,1,304.408
1,hard,51,1,1,739.368
1,hard,51,2,0,275.834
1,hard,51,3,1,324.615
1,hard,51,4,0,276.525
1,hard,51,5,1,368.685
1,hard,51,6,0,494.909
1,hard,51,7,1,672.636
1,hard,51,8,0,312.903
1,hard,51,9,1,952.87
1,hard,51,10,0,441.234
1,hard,52,1,1,615.627
1,hard,52,2,0,248.71
1,hard,52,3,1,322.935
1,hard,52,4,1,284.54
1,hard,52,5,0,403.505
1,hard,52,6,0,435.429
1,hard,52,7,1,625.564
1,hard,52,8,0,394.242
1,hard,52,9,1,660.316
1,hard,52,10,1,370.431
1,hard,53,1,1,585.681
1,hard,53,2,0,282.127
1,hard,53,3,1,368.801
1,hard,53,4,0,260.872
1,hard,53,5,1,316.263
1,hard,53,6,0,412.371
1,hard,53,7,0,665.923
1,hard,53,8,0,424.869
1,hard,53,9,1,676.198
1,hard,53,10,0,457.294
1,hard,54,1,1,661.511
1,hard,54,2,1,210.526
1,hard,54,3,1,333.725
1,hard,54,4,0,287.739
1,hard,54,5,0,381.856
1,hard,54,6,1,415.017
1,hard,54,7,1,549.024
1,hard,54,8,0,399.811
1,hard,54,9,1,818.18
1,hard,54,10,1,316.139
1,hard,55,1,1,612.016
1,hard,55,2,0,275.085
1,hard,55,3,1,358.717
1,hard,55,4,0,249.735
1,hard,55,5,1,303.417
1,hard,55,6,1,352.278
1,hard,55,7,1,611.306
1,hard,55,8,0,334.546
1,hard,55,9,0,1095.104
1,hard,55,10,0,380.052
1,hard,56,1,0,820.203
1,hard,56,2,0,355.332
1,hard,56,3,0,377.737
1,hard,56,4,1,261.217
1,hard,56,5,1,347.979
1,hard,56,6,1,360.326
1,hard,56,7,0,618.65
1,hard,56,8,0,373.361
1,hard,56,9,0,850.717
1,hard,56,10,0,441.95
1,hard,57,1,1,597.225
1,hard,57,2,0,285.654
1,hard,57,3,0,362.915
1,hard,57,4,0,246.443
1,hard,57,5,0,397.4
1,hard,57,6,1,378.649
1,hard,57,7,1,576.606
1,hard,57,8,0,498.281
1,hard,57,9,1,855.819
1,hard,57,10,1,392.16
1,hard,58,1,1,610.685
1,hard,58,2,0,287.48
1,hard,58,3,0,460.091
1,hard,58,4,0,285.568
1,hard,58,5,1,345.233
1,hard,58,6,0,493.715
1,hard,58,7,1,614.168
1,hard,58,8,0,374.533
1,hard,58,9,1,721.091
1,hard,58,10,0,412.604
1,hard,59,1,1,642.142
1,hard,59,2,0,249.695
1,hard,59,3,1,329.81
1,hard,59,4,0,271.701
1,hard,59,5,1,319.665
1,hard,59,6,0,448.995
1,hard,59,7,0,833.031
1,hard,59,8,0,375.863
1,hard,59,9,1,682.433
1,hard,59,10,0,454.969
1,hard,60,1,0,751.463
1,hard,60,2,0,311.426
1,hard,60,3,0,421.733
1,hard,60,4,1,224.174
1,hard,60,5,1,387.738
1,hard,60,6,0,436.839
1,hard,60,7,0,757.178
1,hard,60,8,0,376.974
1,hard,60,9,1,818.329
1,hard,60,10,0,474.518
1,hard,61,1,1,628.827
1,hard,61,2,0,310.046
1,hard,61,3,1,292.559
1,hard,61,4,1,285.245
1,hard,61,5,1,294.424
1,hard,61,6,1,339.132
1,hard,61,7,1,662.377
1,hard,61,8,0,385.888
1,hard,61,9,1,781.089
1,hard,61,10,1,348.328
1,hard,62,1,1,597.95
1,hard,62,2,0,261.527
1,hard,62,3,0,386.938
1,hard,62,4,0,322.323
1,hard,62,5,1,299.799
1,hard,62,6,0,399.276
1,hard,62,7,1,560.965
1,hard,62,8,0,433.567
1,hard,62,9,1,728.919
1,hard,62,10,1,295.655
1,hard,63,1,1,532.982
1,hard,63,2,1,232.164
1,hard,63,3,1,343.375
1,hard,63,4,0,269.788
1,hard,63,5,1,299.896
1,hard,63,6,1,411.969
1,hard,63,7,1,588.712
1,hard,63,8,0,457.174
1,hard,63,9,1,855.098
1,hard,63,10,1,323.038
1,hard,64,1,1,669.971
1,hard,64,2,0,252.81
1,hard,64,3,0,445.244
1,hard,64,4,1,220.022
1,hard,64,5,1,322.539
1,hard,64,6,0,390.59
1,hard,64,7,1,620.746
1,hard,64,8,0,334.343
1,hard,64,9,1,816.428
1,hard,64,10,1,309.335
1,hard,65,1,1,586.137
1,hard,65,2,0,252.935
1,hard,65,3,0,368.469
1,hard,65,4,0,336.028
1,hard,65,5,1,277.417
1,hard,65,6,1,379.84
1,hard,65,7,1,628.088
1,hard,65,8,0,318.119
1,hard,65,9,1,788.046
1,hard,65,10,0,413.995
1,hard,66,1,1,720.744
1,hard,66,2,0,255.472
1,hard,66,3,1,400.623
1,hard,66,4,1,245.118
1,hard,66,5,1,382.689
1,hard,66,6,0,445.307
1,hard,66,7,1,704.055
1,hard,66,8,0,381.187
1,hard,66,9,1,829.088
1,hard,66,10,0,446.097
1,hard,67,1,1,623.75
1,hard,67,2,0,287.412
1,hard,67,3,1,336.085
1,hard,67,4,1,240.692
1,hard,67,5,0,413.056
1,hard,67,6,0,413.926
1,hard,67,7,0,765.871
1,hard,67,8,0,438.3
1,hard,67,9,1,817.165
1,hard,67,10,0,481.484
1,hard,68,1,0,758.365
1,hard,68,2,1,223.134
1,hard,68,3,0,407.249
1,hard,68,4,1,271.373
1,hard,68,5,1,362.647
1,hard,68,6,0,428.165
1,hard,68,7,1,686.524
1,hard,68,8,0,332.907
1,hard,68,9,0,846.565
1,hard,68,10,1,344.301
1,hard,69,1,0,749.236
1,hard,69,2,0,258.446
1,hard,69,3,1,412.008
1,hard,69,4,1,231.431
1,hard,69,5,0,416.826
1,hard,69,6,0,465.818
1,hard,69,7,1,742.911
1,hard,69,8,0,404.342
1,hard,69,9,1,807.316
1,hard,69,10,0,462.524
1,hard,70,1,1,703.843
1,hard,70,2,1,232.252
1,hard,70,3,0,466.157
1,hard,70,4,0,342.42
1,hard,70,5,0,363.996
1,hard,70,6,0,419.108
1,hard,70,7,1,586.981
1,hard,70,8,0,394.746
1,hard,70,9,0,1014.601
1,hard,70,10,1,361.428
1,hard,71,1,1,705.562
1,hard,71,2,0,285.96
1,hard,71,3,1,279.481
1,hard,71,4,0,317.2
1,hard,71,5,1,294.391
1,hard,71,6,0,515.056
1,hard,71,7,0,795.669
1,hard,71,8,1,310.625
1,hard,71,9,1,810.672
1,hard,71,10,1,302.17
1,hard,72,1,1,778.118
1,hard,72,2,0,242.792
1,hard,72,3,0,387.442
1,hard,72,4,0,302.116
1,hard,72,5,1,324.107
1,hard,72,6,0,407.887
1,hard,72,7,1,618.292
1,hard,72,8,1,278.283
1,hard,72,9,0,821.17
1,hard,72,10,0,401.508
1,hard,73,1,1,605.308
1,hard,73,2,1,238.909
1,hard,73,3,0,467.444
1,hard,73,4,0,271.967
1,hard,73,5,0,406.75
1,hard,73,6,0,420.656
1,hard,73,7,0,825.764
1,hard,73,8,0,391.339
1,hard,73,9,0,994.88
1,hard,73,10,0,397.134
1,hard,74,1,1,647.842
1,hard,74,2,0,275.714
1,hard,74,3,1,350.17
1,hard,74,4,1,296.711
1,hard,74,5,1,304.506
1,hard,74,6,0,439.878
1,hard,74,7,1,727.659
1,hard,74,8,0,489.973
1,hard,74,9,1,838.878
1,hard,74,10,0,393.463
1,hard,75,1,1,632.511
1,hard,75,2,0,245.028
1,hard,75,3,0,354.744
1,hard,75,4,0,310.567
1,hard,75,5,1,346.802
1,hard,75,6,1,338.28
1,hard,75,7,1,614.128
1,hard,75,8,0,321.867
1,hard,75,9,1,946.967
1,hard,75,10,0,395.794
1,hard,76,1,1,716.684
1,hard,76,2,1,250.607
1,hard,76,3,1,330.9
1,hard,76,4,1,251.703
1,hard,76,5,1,316.319
1,hard,76,6,0,401.324
1,hard,76,7,1,682.377
1,hard,76,8,0,430.269
1,hard,76,9,1,625.576
1,hard,76,10,1,378.25
1,hard,77,1,1,669.889
1,hard,77,2,0,248.375
1,hard,77,3,0,457.421
1,hard,77,4,1,260.824
1,hard,77,5,1,285.704
1,hard,77,6,1,383.081
1,hard,77,7,1,749.464
1,hard,77,8,0,416.72
1,hard,77,9,0,946.121
1,hard,77,10,1,381.99
1,hard,78,1,0,875.302
1,hard,78,2,0,252.288
1,hard,78,3,0,401.805
1,hard,78,4,1,280.5
1,hard,78,5,1,312.816
1,hard,78,6,1,391.727
1,hard,78,7,1,648.669
1,hard,78,8,0,402.626
1,hard,78,9,1,772.347
1,hard,78,10,0,398.119
1,hard,79,1,1,650.779
1,hard,79,2,0,274.416
1,hard,79,3,1,333.976
1,hard,79,4,1,239.778
1,hard,79,5,1,335.639
1,hard,79,6,0,437.906
1,hard,79,7,1,624.549
1,hard,79,8,0,394.428
1,hard,79,9,1,747.749
1,hard,79,10,0,445.701
1,hard,80,1,1,533.347
1,hard,80,2,0,240.536
1,hard,80,3,1,402.254
1,hard,80,4,1,225.796
1,hard,80,5,0,373.094
1,hard,80,6,0,500.657
1,hard,80,7,1,579.64
1,hard,80,8,0,311.238
1,hard,80,9,1,815.432
1,hard,80,10,0,413.829
1,hard,81,1,0,842.881
1,hard,81,2,0,272.023
1,hard,81,3,1,369.671
1,hard,81,4,1,236.329
1,hard,81,5,1,351.687
1,hard,81,6,1,341.017
1,hard,81,7,0,659.925
1,hard,81,8,0,411.953
1,hard,81,9,0,957.094
1,hard,81,10,1,339.584
1,hard,82,1,1,664.771
1,hard,82,2,0,292.405
1,hard,82,3,1,360.741
1,hard,82,4,1,260.62
1,hard,82,5,0,403.074
1,hard,82,6,0,490.048
1,hard,82,7,1,535.104
1,hard,82,8,0,367.661
1,hard,82,9,1,654.423
1,hard,82,10,0,442.54
1,hard,83,1,1,594.341
1,hard,83,2,0,355.251
1,hard,83,3,1,337.063
1,hard,83,4,0,264.802
1,hard,83,5,1,328.153
1,hard,83,6,0,445.979
1,hard,83,7,1,586.61
1,hard,83,8,0,376.004
1,hard,83,9,1,855.387
1,hard,83,10,1,366.646
1,hard,84,1,0,720.379
1,hard,84,2,0,319.16
1,hard,84,3,1,296.906
1,hard,84,4,0,332.255
1,hard,84,5,1,316.856
1,hard,84,6,0,438.383
1,hard,84,7,0,921.816
1,hard,84,8,0,392.789
1,hard,84,9,1,838.728
1,hard,84,10,0,410.625
1,hard,85,1,1,652.603
1,hard,85,2,0,286.685
1,hard,85,3,0,374.789
1,hard,85,4,0,319.48
1,hard,85,5,0,399.163
1,hard,85,6,0,416.698
1,hard,85,7,1,835.576
1,hard,85,8,0,360.379
1,hard,85,9,0,912.127
1,hard,85,10,1,341.981
1,hard,86,1,1,661.652
1,hard,86,2,0,261.125
1,hard,86,3,1,358.784
1,hard,86,4,0,338.744
1,hard,86,5,1,380.747
1,hard,86,6,0,446.325
1,hard,86,7,1,525.695
1,hard,86,8,0,359.495
1,hard,86,9,1,672.153
1,hard,86,10,0,405.815
1,hard,87,1,1,679.398
1,hard,87,2,0,358.287
1,hard,87,3,1,325.722
1,hard,87,4,1,210.851
1,hard,87,5,1,264.007
1,hard,87,6,0,421.268
1,hard,87,7,1,568.289
1,hard,87,8,0,368.272
1,hard,87,9,1,765.438
1,hard,87,10,0,429.122
1,hard,88,1,1,546.163
1,hard,88,2,0,275.378
1,hard,88,3,0,392.945
1,hard,88,4,1,241.33
1,hard,88,5,0,359.91
1,hard,88,6,0,455.98
1,hard,88,7,1,691.137
1,hard,88,8,1,366.013
1,hard,88,9,1,693.199
1,hard,88,10,1,345.713
1,hard,89,1,1,532.279
1,hard,89,2,0,253.147
1,hard,89,3,0,378.218
1,hard,89,4,1,278.632
1,hard,89,5,1,330.744
1,hard,89,6,0,474.614
1,hard,89,7,1,618.27
1,hard,89,8,0,363.086
1,hard,89,9,1,752.351
1,hard,89,10,1,344.591
1,hard,90,1,1,658.352
1,hard,90,2,0,287.859
1,hard,90,3,1,342.977
1,hard,90,4,0,296.486
1,hard,90,5,1,278.03
1,hard,90,6,0,453.394
1,hard,90,7,0,878.222
1,hard,90,8,0,382.795
1,hard,90,9,1,798.633
1,hard,90,10,1,307.462
1,hard,91,1,1,582.432
1,hard,91,2,1,220.075
1,hard,91,3,1,336.054
1,hard,91,4,0,274.885
1,hard,91,5,1,378.21
1,hard,91,6,0,438.467
1,hard,91,7,1,584.272
1,hard,91,8,0,477.646
1,hard,91,9,1,724.301
1,hard,91,10,1,381.897
1,hard,92,1,1,568.606
1,hard,92,2,0,250.94
1,hard,92,3,0,413.34
1,hard,92,4,0,273.868
1,hard,92,5,1,299.043
1,hard,92,6,0,485.508
1,hard,92,7,1,611.197
1,hard,92,8,0,411.89
1,hard,92,9,0,820.872
1,hard,92,10,0,364.519
1,hard,93,1,1,602.523
1,hard,93,2,0,270.532
1,hard,93,3,0,423.059
1,hard,93,4,1,245.001
1,hard,93,5,0,383.259
1,hard,93,6,0,480.643
1,hard,93,7,1,547.852
1,hard,93,8,0,435.446
1,hard,93,9,1,888.647
1,hard,93,10,1,287.165
1,hard,94,1,1,747.403
1,hard,94,2,0,281.128
1,hard,94,3,1,355.887
1,hard,94,4,1,217.531
1,hard,94,5,0,360.579
1,hard,94,6,0,384.532
1,hard,94,7,1,688.132
1,hard,94,8,0,363.556
1,hard,94,9,1,841.87
1,hard,94,10,0,416.035
1,hard,95,1,1,672.451
1,hard,95,2,0,274.805
1,hard,95,3,1,324.149
1,hard,95,4,0,362.187
1,hard,95,5,0,433.352
1,hard,95,6,0,395.246
1,hard,95,7,1,668.024
1,hard,95,8,0,375.848
1,hard,95,9,1,876.195
1,hard,95,10,1,320.891
1,hard,96,1,1,654.247
1,hard,96,2,0,287.049
1,hard,96,3,1,353.699
1,hard,96,4,1,209.933
1,hard,96,5,1,321.327
1,hard,96,6,1,339.282
1,hard,96,7,1,599.611
1,hard,96,8,0,445.46
1,hard,96,9,1,733.911
1,hard,96,10,1,344.103
1,hard,97,1,1,696.785
1,hard,97,2,0,254.221
1,hard,97,3,1,355.776
1,hard,97,4,1,245.094
1,hard,97,5,0,378.179
1,hard,97,6,0,403.716
1,hard,97,7,1,570.395
1,hard,97,8,0,380.916
1,hard,97,9,1,776.436
1,hard,97,10,1,342.324
1,hard,98,1,1,679.601
1,hard,98,2,0,253.644
1,hard,98,3,0,439.992
1,hard,98,4,1,260.3
1,hard,98,5,0,426.478
1,hard,98,6,0,464.591
1,hard,98,7,1,627.496
1,hard,98,8,0,455.977
1,hard,98,9,1,831.12
1,hard,98,10,1,282.87
1,hard,99,1,1,618.21
1,hard,99,2,0,284.164
1,hard,99,3,0,510.912
1,hard,99,4,1,230.44
1,hard,99,5,0,426.068
1,hard,99,6,0,425.152
1,hard,99,7,1,526.82
1,hard,99,8,0,346.1
1,hard,99,9,1,834.293
1,hard,99,10,1,376.073
1,hard,100,1,1,625.214
1,hard,100,2,0,258.098
1,hard,100,3,0,468.671
1,hard,100,4,0,312.971
1,hard,100,5,0,375.749
1,hard,100,6,1,399.065
1,hard,100,7,1,652.288
1,hard,100,8,0,348.339
1,hard,100,9,1,810.966
1,hard,100,10,0,439.663
1,hard,101,1,0,723.07
1,hard,101,2,0,266.906
1,hard,101,3,0,443.174
1,hard,101,4,1,250.746
1,hard,101,5,1,329.666
1,hard,101,6,0,516.673
1,hard,101,7,1,613.669
1,hard,101,8,0,432.167
1,hard,101,9,1,841.601
1,hard,101,10,1,396.831
1,hard,102,1,1,804.91
1,hard,102,2,0,347.062
1,hard,102,3,0,440.406
1,hard,102,4,0,321.576
1,hard,102,5,1,275.89
1,hard,102,6,1,342.072
1,hard,102,7,0,752.786
1,hard,102,8,0,443.583
1,hard,102,9,1,752.999
1,hard,102,10,1,358.085
1,hard,103,1,1,710.561
1,hard,103,2,0,297.899
1,hard,103,3,0,473.357
1,hard,103,4,1,217.286
1,hard,103,5,0,414.815
1,hard,103,6,0,483.649
1,hard,103,7,0,651.779
1,hard,103,8,0,378.566
1,hard,103,9,1,698.805
1,hard,103,10,1,337.071
1,hard,104,1,1,595.66
1,hard,104,2,0,261.779
1,hard,104,3,1,354.398
1,hard,104,4,1,201.365
1,hard,104,5,0,386.599
1,hard,104,6,0,471.902
1,hard,104,7,1,548.526
1,hard,104,8,0,315.838
1,hard,104,9,1,754.177
1,hard,104,10,1,271.545
1,hard,105,1,1,643.489
1,hard,105,2,0,295.536
1,hard,105,3,1,311.667
1,hard,105,4,0,310.291
1,hard,105,5,1,351.655
1,hard,105,6,0,474.017
1,hard,105,7,1,688.615
1,hard,105,8,0,432.508
1,hard,105,9,1,743.032
1,hard,105,10,1,306.3
1,hard,106,1,1,662.315
1,hard,106,2,0,283.537
1,hard,106,3,1,409.257
1,hard,106,4,1,268.715
1,hard,106,5,0,420.156
1,hard,106,6,0,419.192
1,hard,106,7,1,521.258
1,hard,106,8,0,462.697
1,hard,106,9,0,875.437
1,hard,106,10,1,319.717
1,hard,107,1,1,742.236
1,hard,107,2,0,321.283
1,hard,107,3,1,297.708
1,hard,107,4,0,342.141
1,hard,107,5,1,344.382
1,hard,107,6,0,562.988
1,hard,107,7,1,559.42
1,hard,107,8,0,431.352
1,hard,107,9,1,700.041
1,hard,107,10,0,423.111
1,hard,108,1,1,576.57
1,hard,108,2,0,226.998
1,hard,108,3,1,324.915
1,hard,108,4,1,236.357
1,hard,108,5,0,335.966
1,hard,108,6,0,410.729
1,hard,108,7,0,752.266
1,hard,108,8,0,389.082
1,hard,108,9,1,758.448
1,hard,108,10,1,331.467
1,hard,109,1,1,617.961
1,hard,109,2,1,193.743
1,hard,109,3,1,314.169
1,hard,109,4,0,313.611
1,hard,109,5,1,375.214
1,hard,109,6,1,376.172
1,hard,109,7,1,549.201
1,hard,109,8,0,360.746
1,hard,109,9,1,733.185
1,hard,109,10,1,357.726
1,hard,110,1,1,642.136
1,hard,110,2,1,192.386
1,hard,110,3,0,385.299
1,hard,110,4,0,294.751
1,hard,110,5,1,296.211
1,hard,110,6,0,369.364
1,hard,110,7,1,571.929
1,hard,110,8,0,318.795
1,hard,110,9,0,960.264
1,hard,110,10,1,341.54
1,hard,111,1,1,692.642
1,hard,111,2,0,256.938
1,hard,111,3,0,437.881
1,hard,111,4,0,262.982
1,hard,111,5,1,296.28
1,hard,111,6,0,387.727
1,hard,111,7,1,668.296
1,hard,111,8,0,360.85
1,hard,111,9,1,785.296
1,hard,111,10,0,519.31
1,hard,112,1,1,588.193
1,hard,112,2,0,221.487
1,hard,112,3,1,318.972
1,hard,112,4,0,348.018
1,hard,112,5,1,337.874
1,hard,112,6,0,423.232
1,hard,112,7,1,538.858
1,hard,112,8,0,389.903
1,hard,112,9,1,655.757
1,hard,112,10,1,333.555
1,hard,113,1,1,714.855
1,hard,113,2,0,308.553
1,hard,113,3,0,377.358
1,hard,113,4,0,346.343
1,hard,113,5,1,344.455
1,hard,113,6,0,440.176
1,hard,113,7,1,704.675
1,hard,113,8,0,366.701
1,hard,113,9,1,757.911
1,hard,113,10,0,406.923
1,hard,114,1,1,558.834
1,hard,114,2,0,275.122
1,hard,114,3,1,357.553
1,hard,114,4,1,237.839
1,hard,114,5,0,375.157
1,hard,114,6,0,436.915
1,hard,114,7,1,583.01
1,hard,114,8,0,355.066
1,hard,114,9,0,1010.007
1,hard,114,10,0,362.123
1,hard,115,1,1,666.878
1,hard,115,2,0,328.881
1,hard,115,3,1,427.186
1,hard,115,4,1,270.71
1,hard,115,5,0,388.552
1,hard,115,6,0,445.765
1,hard,115,7,1,745.624
1,hard,115,8,0,355.366
1,hard,115,9,0,936.155
1,hard,115,10,0,462.557
1,hard,116,1,1,775.392
1,hard,116,2,0,278.048
1,hard,116,3,1,297.942
1,hard,116,4,1,263.426
1,hard,116,5,0,430.028
1,hard,116,6,0,512.085
1,hard,116,7,1,627.987
1,hard,116,8,0,440.45
1,hard,116,9,1,663.351
1,hard,116,10,1,331.017
1,hard,117,1,1,693.333
1,hard,117,2,0,299.007
1,hard,117,3,1,342.094
1,hard,117,4,0,326.524
1,hard,117,5,1,311.13
1,hard,117,6,0,398.85
1,hard,117,7,1,744.937
1,hard,117,8,0,390.263
1,hard,117,9,1,674.946
1,hard,117,10,0,583.915
1,hard,118,1,0,715.845
1,hard,118,2,0,274.351
1,hard,118,3,1,364.989
1,hard,118,4,1,246.754
1,hard,118,5,1,271.63
1,hard,118,6,1,430.55
1,hard,118,7,1,596.88
1,hard,118,8,0,430.695
1,hard,118,9,0,806.899
1,hard,118,10,1,441.556
1,hard,119,1,1,597.755
1,hard,119,2,0,326.109
1,hard,119,3,0,423.167
1,hard,119,4,0,358.972
1,hard,119,5,1,282.278
1,hard,119,6,0,394.383
1,hard,119,7,1,551.589
1,hard,119,8,0,494.999
1,hard,119,9,1,725.246
1,hard,119,10,1,336.054
1,hard,120,1,0,870.005
1,hard,120,2,0,329.006
1,hard,120,3,0,423.98
1,hard,120,4,1,224.242
1,hard,120,5,0,361.695
1,hard,120,6,0,437.137
1,hard,120,7,1,545.722
1,hard,120,8,0,397.165
1,hard,120,9,0,777.686
1,hard,120,10,0,351.489
1,hard,121,1,1,632.07
1,hard,121,2,0,281.562
1,hard,121,3,0,406.546
1,hard,121,4,0,319.675
1,hard,121,5,1,262.928
1,hard,121,6,0,492.065
1,hard,121,7,1,652.351
1,hard,121,8,0,405.385
1,hard,121,9,1,663.582
1,hard,121,10,1,305.031
1,hard,122,1,1,684.559
1,hard,122,2,0,263.934
1,hard,122,3,1,382.533
1,hard,122,4,0,236.781
1,hard,122,5,1,324.891
1,hard,122,6,0,362.303
1,hard,122,7,1,709.161
1,hard,122,8,1,301.881
1,hard,122,9,0,885.792
1,hard,122,10,1,258.931
1,hard,123,1,1,534.368
1,hard,123,2,0,297.771
1,hard,123,3,0,398.029
1,hard,123,4,1,256.074
1,hard,123,5,1,354.688
1,hard,123,6,0,456.066
1,hard,123,7,1,626.189
1,hard,123,8,0,334.985
1,hard,123,9,1,809.051
1,hard,123,10,0,435.283
1,hard,124,1,1,607.016
1,hard,124,2,0,228.531
1,hard,124,3,0,362.856
1,hard,124,4,1,241.051
1,hard,124,5,1,290.075
1,hard,124,6,0,537.491
1,hard,124,7,1,683.463
1,hard,124,8,0,418.319
1,hard,124,9,1,925.699
1,hard,124,10,0,436.54
1,hard,125,1,1,592.417
1,hard,125,2,1,200.367
1,hard,125,3,0,332.279
1,hard,125,4,0,282.511
1,hard,125,5,1,401.204
1,hard,125,6,0,441.713
1,hard,125,7,0,779.053
1,hard,125,8,0,443.314
1,hard,125,9,1,770.498
1,hard,125,10,0,402.431
1,hard,126,1,1,544.661
1,hard,126,2,0,311.309
1,hard,126,3,0,473.249
1,hard,126,4,1,245.143
1,hard,126,5,1,363.553
1,hard,126,6,0,405.971
1,hard,126,7,1,575.847
1,hard,126,8,0,437.549
1,hard,126,9,1,792.968
1,hard,126,10,1,343.919
1,hard,127,1,1,653.749
1,hard,127,2,0,235.776
1,hard,127,3,0,418.313
1,hard,127,4,1,215.763
1,hard,127,5,0,355.318
1,hard,127,6,0,505.91
1,hard,127,7,1,539.477
1,hard,127,8,0,356.97
1,hard,127,9,0,969.01
1,hard,127,10,0,380.104
1,hard,128,1,0,684.088
1,hard,128,2,0,226.367
1,hard,128,3,0,390.581
1,hard,128,4,1,233.403
1,hard,128,5,1,252.056
1,hard,128,6,1,423.37
1,hard,128,7,1,593.246
1,hard,128,8,0,363.141
1,hard,128,9,1,691.765
1,hard,128,10,0,400.863
1,hard,129,1,1,780.669
1,hard,129,2,0,269.622
1,hard,129,3,1,436.341
1,hard,129,4,1,195.338
1,hard,129,5,1,293.167
1,hard,129,6,0,479.266
1,hard,129,7,1,637.613
1,hard,129,8,0,394.955
1,hard,129,9,1,955.873
1,hard,129,10,1,383.12
1,hard,130,1,1,678.698
1,hard,130,2,0,302.534
1,hard,130,3,1,311.422
1,hard,130,4,0,286.91
1,hard,130,5,1,269.345
1,hard,130,6,0,460.244
1,hard,130,7,1,667.955
1,hard,130,8,0,389.83
1,hard,130,9,1,770.876
1,hard,130,10,0,470.123
1,hard,131,1,1,620.76
1,hard,131,2,0,323.305
1,hard,131,3,0,381.486
1,hard,131,4,0,291.048
1,hard,131,5,1,299.317
1,hard,131,6,1,326.994
1,hard,131,7,1,644.512
1,hard,131,8,1,339.33
1,hard,131,9,1,907.122
1,hard,131,10,0,466.176
1,hard,132,1,1,725.435
1,hard,132,2,1,243.407
1,hard,132,3,1,302.692
1,hard,132,4,0,294.123
1,hard,132,5,0,403.542
1,hard,132,6,1,396.258
1,hard,132,7,1,650.268
1,hard,132,8,0,381.74
1,hard,132,9,1,899.784
1,hard,132,10,1,325.163
1,hard,133,1,1,752.935
1,hard,133,2,0,262.006
1,hard,133,3,0,430.707
1,hard,133,4,0,280.896
1,hard,133,5,0,398.794
1,hard,133,6,0,414.479
1,hard,133,7,1,647.936
1,hard,133,8,0,401.812
1,hard,133,9,1,701.086
1,hard,133,10,1,354.109
1,hard,134,1,1,556.615
1,hard,134,2,1,201.031
1,hard,134,3,1,466.343
1,hard,134,4,1,227.314
1,hard,134,5,1,291.583
1,hard,134,6,0,407.211
1,hard,134,7,1,698.065
1,hard,134,8,0,394.4
1,hard,134,9,1,812.679
1,hard,134,10,1,366.744
1,hard,135,1,1,717.509
1,hard,135,2,1,217.941
1,hard,135,3,0,360.207
1,hard,135,4,0,292.333
1,hard,135,5,0,336.84
1,hard,135,6,0,374.746
1,hard,135,7,1,717.28
1,hard,135,8,0,287.074
1,hard,135,9,1,767.63
1,hard,135,10,0,327.705
1,hard,136,1,1,652.881
1,hard,136,2,1,218.61
1,hard,136,3,1,335.003
1,hard,136,4,1,250.501
1,hard,136,5,1,358.37
1,hard,136,6,1,386.103
1,hard,136,7,1,574.613
1,hard,136,8,0,417.462
1,hard,136,9,1,740.374
1,hard,136,10,1,317.709
1,hard,137,1,1,637.952
1,hard,137,2,0,255.057
1,hard,137,3,1,280.279
1,hard,137,4,0,326.448
1,hard,137,5,1,293.239
1,hard,137,6,1,340.5
1,hard,137,7,1,769.667
1,hard,137,8,0,413.627
1,hard,137,9,1,764.241
1,hard,137,10,1,286.623
1,hard,138,1,1,712.341
1,hard,138,2,0,249.687
1,hard,138,3,0,419.293
1,hard,138,4,0,325.487
1,hard,138,5,1,331.309
1,hard,138,6,0,415.812
1,hard,138,7,1,731.263
1,hard,138,8,0,414.06
1,hard,138,9,1,781.627
1,hard,138,10,0,365.436
1,hard,139,1,1,591.217
1,hard,139,2,0,305.353
1,hard,139,3,0,438.373
1,hard,139,4,1,266.141
1,hard,139,5,1,272.199
1,hard,139,6,0,440.025
1,hard,139,7,1,600.967
1,hard,139,8,0,362.399
1,hard,139,9,1,918.975
1,hard,139,10,1,397.504
1,hard,140,1,1,614.717
1,hard,140,2,1,191.057
1,hard,140,3,0,402.869
1,hard,140,4,0,314.391
1,hard,140,5,1,281.614
1,hard,140,6,0,508.023
1,hard,140,7,1,651.577
1,hard,140,8,0,389.636
1,hard,140,9,1,822.522
1,hard,140,10,0,411.753
1,hard,141,1,1,663.611
1,hard,141,2,0,365.938
1,hard,141,3,1,363.134
1,hard,141,4,0,272.168
1,hard,141,5,0,415.229
1,hard,141,6,0,450.583
1,hard,141,7,0,767.006
1,hard,141,8,0,366.419
1,hard,141,9,1,800.53
1,hard,141,10,0,405.761
1,hard,142,1,1,716.857
1,hard,142,2,1,215.595
1,hard,142,3,1,352.812
1,hard,142,4,0,332.925
1,hard,142,5,1,376.622
1,hard,142,6,0,451.607
1,hard,142,7,1,658.072
1,hard,142,8,0,349.959
1,hard,142,9,1,785.001
1,hard,142,10,1,416.2
1,hard,143,1,1,698.813
1,hard,143,2,0,265.692
1,hard,143,3,0,442.382
1,hard,143,4,0,335.107
1,hard,143,5,0,378.855
1,hard,143,6,0,329.402
1,hard,143,7,1,516.353
1,hard,143,8,0,388.145
1,hard,143,9,1,841.322
1,hard,143,10,1,271.3
1,hard,144,1,1,737.996
1,hard,144,2,0,307.173
1,hard,144,3,1,369.464
1,hard,144,4,0,326.498
1,hard,144,5,0,355.054
1,hard,144,6,1,356.781
1,hard,144,7,0,668.771
1,hard,144,8,0,396.51
1,hard,144,9,1,694.084
1,hard,144,10,1,343.492
1,hard,145,1,1,678.86
1,hard,145,2,1,210.444
1,hard,145,3,0,406.583
1,hard,145,4,0,308.113
1,hard,145,5,1,336.043
1,hard,145,6,1,359.289
1,hard,145,7,1,632.442
1,hard,145,8,0,474.358
1,hard,145,9,0,1099.924
1,hard,145,10,1,350.463
1,hard,146,1,1,576.026
1,hard,146,2,0,279.19
1,hard,146,3,1,341.978
1,hard,146,4,1,218.22
1,hard,146,5,0,489.469
1,hard,146,6,0,455.222
1,hard,146,7,1,597.039
1,hard,146,8,0,498.783
1,hard,146,9,1,760.403
1,hard,146,10,1,331.113
1,hard,147,1,1,704.952
1,hard,147,2,0,257.415
1,hard,147,3,0,380.034
1,hard,147,4,0,294.176
1,hard,147,5,0,368.523
1,hard,147,6,0,475.504
1,hard,147,7,1,551.748
1,hard,147,8,0,370.457
1,hard,147,9,1,757.783
1,hard,147,10,1,327.412
1,hard,148,1,1,682.268
1,hard,148,2,1,229.793
1,hard,148,3,0,423.419
1,hard,148,4,0,294.487
1,hard,148,5,1,336.15
1,hard,148,6,0,421.32
1,hard,148,7,1,598.156
1,hard,148,8,0,381.368
1,hard,148,9,1,557.501
1,hard,148,10,1,352.658
1,hard,149,1,1,740.199
1,hard,149,2,0,233.138
1,hard,149,3,1,369.177
1,hard,149,4,1,225.529
1,hard,149,5,1,304.08
1,hard,149,6,0,496.114
1,hard,149,7,1,546.539
1,hard,149,8,0,345.577
1,hard,149,9,1,815.371
1,hard,149,10,0,443.352
1,hard,150,1,0,665.588
1,hard,150,2,0,270
1,hard,150,3,1,326.932
1,hard,150,4,1,215.839
1,hard,150,5,1,301.037
1,hard,150,6,0,484.223
1,hard,150,7,1,536.122
1,hard,150,8,0,385.849
1,hard,150,9,1,686.554
1,hard,150,10,1,370.24
1,hard,151,1,1,594.12
1,hard,151,2,0,228.206
1,hard,151,3,0,383.82
1,hard,151,4,0,261.438
1,hard,151,5,1,314.951
1,hard,151,6,0,389.077
1,hard,151,7,1,627.889
1,hard,151,8,0,389.816
1,hard,151,9,1,757.92
1,hard,151,10,1,346.781
1,hard,152,1,1,695.207
1,hard,152,2,1,232.531
1,hard,152,3,0,431.857
1,hard,152,4,1,213.398
1,hard,152,5,1,301.02
1,hard,152,6,0,344.912
1,hard,152,7,1,602.226
1,hard,152,8,0,396.443
1,hard,152,9,1,701.397
1,hard,152,10,0,410.612
1,hard,153,1,1,702.19
1,hard,153,2,0,240.879
1,hard,153,3,1,315.416
1,hard,153,4,0,290.199
1,hard,153,5,0,403.386
1,hard,153,6,0,406.353
1,hard,153,7,1,526.335
1,hard,153,8,0,381.592
1,hard,153,9,1,734.208
1,hard,153,10,0,380.883
1,hard,154,1,0,793.72
1,hard,154,2,0,282.497
1,hard,154,3,1,307.905
1,hard,154,4,0,308.608
1,hard,154,5,1,326.792
1,hard,154,6,0,493.243
1,hard,154,7,1,660.51
1,hard,154,8,0,396
1,hard,154,9,1,741.529
1,hard,154,10,1,391.707
1,hard,155,1,1,719.794
1,hard,155,2,1,254.724
1,hard,155,3,0,380.974
1,hard,155,4,1,297.065
1,hard,155,5,0,451.68
1,hard,155,6,0,406.249
1,hard,155,7,1,715.386
1,hard,155,8,0,371.352
1,hard,155,9,0,767.352
1,hard,155,10,0,418.114
1,hard,156,1,1,725.787
1,hard,156,2,0,254.245
1,hard,156,3,0,467.49
1,hard,156,4,1,209.716
1,hard,156,5,1,270.631
1,hard,156,6,1,361.401
1,hard,156,7,1,589.035
1,hard,156,8,0,363.711
1,hard,156,9,1,731.542
1,hard,156,10,1,394.614
1,hard,157,1,1,595.566
1,hard,157,2,0,292.27
1,hard,157,3,1,270.194
1,hard,157,4,0,275.593
1,hard,157,5,0,376.714
1,hard,157,6,1,367.924
1,hard,157,7,1,634.133
1,hard,157,8,1,325.75
1,hard,157,9,1,757.42
1,hard,157,10,1,378.488
1,hard,158,1,1,559.835
1,hard,158,2,0,228.134
1,hard,158,3,0,477.934
1,hard,158,4,1,250.392
1,hard,158,5,1,286.499
1,hard,158,6,0,467.464
1,hard,158,7,0,775.651
1,hard,158,8,0,434.58
1,hard,158,9,1,696.335
1,hard,158,10,1,327.142
1,hard,159,1,1,672.478
1,hard,159,2,0,253.449
1,hard,159,3,0,412.716
1,hard,159,4,1,235.232
1,hard,159,5,0,379.528
1,hard,159,6,0,352.656
1,hard,159,7,1,706.436
1,hard,159,8,0,375.5
1,hard,159,9,1,745.501
1,hard,159,10,0,423.06
1,hard,160,1,1,605.241
1,hard,160,2,0,295.944
1,hard,160,3,1,372.199
1,hard,160,4,1,281.96
1,hard,160,5,0,427.721
1,hard,160,6,0,400.623
1,hard,160,7,1,559.739
1,hard,160,8,0,377.944
1,hard,160,9,1,828.068
1,hard,160,10,0,386.122
1,hard,161,1,1,734.771
1,hard,161,2,0,276.863
1,hard,161,3,0,372.462
1,hard,161,4,1,263.139
1,hard,161,5,0,362.802
1,hard,161,6,0,468.375
1,hard,161,7,0,655.128
1,hard,161,8,0,400.791
1,hard,161,9,1,741.963
1,hard,161,10,0,409.59
1,hard,162,1,1,601.653
1,hard,162,2,1,204.785
1,hard,162,3,1,304.675
1,hard,162,4,1,249.654
1,hard,162,5,0,376.632
1,hard,162,6,0,388.316
1,hard,162,7,1,654.535
1,hard,162,8,1,353.714
1,hard,162,9,1,710.923
1,hard,162,10,0,462.356
1,hard,163,1,1,739.223
1,hard,163,2,0,292.397
1,hard,163,3,1,366.704
1,hard,163,4,1,248
1,hard,163,5,0,377.001
1,hard,163,6,0,391.663
1,hard,163,7,1,614.661
1,hard,163,8,0,401.163
1,hard,163,9,0,1101.087
1,hard,163,10,1,413.969
1,hard,164,1,0,925.532
1,hard,164,2,0,287.907
1,hard,164,3,1,379.576
1,hard,164,4,1,268.462
1,hard,164,5,1,348.737
1,hard,164,6,0,435.906
1,hard,164,7,1,538.126
1,hard,164,8,0,376.62
1,hard,164,9,1,801.155
1,hard,164,10,0,402.543
1,hard,165,1,1,811.031
1,hard,165,2,0,222.058
1,hard,165,3,1,366.837
1,hard,165,4,0,323.744
1,hard,165,5,1,390.764
1,hard,165,6,0,389.796
1,hard,165,7,1,522.591
1,hard,165,8,1,327.163
1,hard,165,9,1,839.153
1,hard,165,10,1,311.42
1,hard,166,1,1,640.974
1,hard,166,2,0,277.874
1,hard,166,3,1,416.346
1,hard,166,4,0,318.584
1,hard,166,5,1,346.292
1,hard,166,6,0,469.168
1,hard,166,7,1,635.188
1,hard,166,8,0,439.661
1,hard,166,9,1,995.501
1,hard,166,10,1,448.087
1,hard,167,1,1,617.537
1,hard,167,2,0,276.617
1,hard,167,3,1,317.409
1,hard,167,4,1,264.823
1,hard,167,5,1,308.559
1,hard,167,6,0,504.716
1,hard,167,7,1,763.552
1,hard,167,8,0,392.213
1,hard,167,9,0,912.117
1,hard,167,10,0,391.177
1,hard,168,1,1,663.259
1,hard,168,2,0,315.914
1,hard,168,3,0,408.079
1,hard,168,4,0,316.208
1,hard,168,5,0,424.39
1,hard,168,6,0,523.742
1,hard,168,7,1,663.081
1,hard,168,8,0,361.918
1,hard,168,9,1,1001.593
1,hard,168,10,1,304.802
1,hard,169,1,1,667.674
1,hard,169,2,0,292.444
1,hard,169,3,0,427.853
1,hard,169,4,1,267.547
1,hard,169,5,0,392.002
1,hard,169,6,1,326.229
1,hard,169,7,0,755.837
1,hard,169,8,0,501.495
1,hard,169,9,1,740.127
1,hard,169,10,1,296.917
1,hard,170,1,1,616.929
1,hard,170,2,0,296.13
1,hard,170,3,1,386.891
1,hard,170,4,0,263.591
1,hard,170,5,1,313.447
1,hard,170,6,0,458.646
1,hard,170,7,0,778.503
1,hard,170,8,0,413.058
1,hard,170,9,1,684.824
1,hard,170,10,0,388.364
1,hard,171,1,1,673.383
1,hard,171,2,1,219.28
1,hard,171,3,0,491.765
1,hard,171,4,1,220.599
1,hard,171,5,0,478.805
1,hard,171,6,0,387.686
1,hard,171,7,1,605.33
1,hard,171,8,0,411.001
1,hard,171,9,1,666.138
1,hard,171,10,1,374.825
1,hard,172,1,1,692.857
1,hard,172,2,0,264.237
1,hard,172,3,0,430.259
1,hard,172,4,1,267.335
1,hard,172,5,1,378.342
1,hard,172,6,0,424.862
1,hard,172,7,1,625.282
1,hard,172,8,0,384.669
1,hard,172,9,1,779.431
1,hard,172,10,1,384.514
1,hard,173,1,1,610.213
1,hard,173,2,0,224.289
1,hard,173,3,0,413.511
1,hard,173,4,0,313.207
1,hard,173,5,1,307.707
1,hard,173,6,0,392.83
1,hard,173,7,1,552.518
1,hard,173,8,0,345.479
1,hard,173,9,1,807.685
1,hard,173,10,0,448.005
1,hard,174,1,1,604.772
1,hard,174,2,0,308.007
1,hard,174,3,1,330.061
1,hard,174,4,1,248.014
1,hard,174,5,1,277.104
1,hard,174,6,1,373.478
1,hard,174,7,1,631.418
1,hard,174,8,0,356.28
1,hard,174,9,0,1026.423
1,hard,174,10,1,282.254
1,hard,175,1,1,670.419
1,hard,175,2,1,204.07
1,hard,175,3,0,403.815
1,hard,175,4,1,255.72
1,hard,175,5,0,416.185
1,hard,175,6,0,483.685
1,hard,175,7,1,556.113
1,hard,175,8,0,413.909
1,hard,175,9,0,1008.419
1,hard,175,10,1,366.425
1,hard,176,1,1,629.306
1,hard,176,2,0,261.096
1,hard,176,3,0,412.043
1,hard,176,4,1,194.808
1,hard,176,5,0,434.451
1,hard,176,6,0,446.215
1,hard,176,7,0,707.274
1,hard,176,8,0,365.381
1,hard,176,9,1,776.695
1,hard,176,10,0,429.543
1,hard,177,1,1,603.346
1,hard,177,2,0,261.165
1,hard,177,3,1,307.138
1,hard,177,4,0,402.329
1,hard,177,5,0,445.57
1,hard,177,6,0,373.176
1,hard,177,7,1,545.485
1,hard,177,8,0,357.423
1,hard,177,9,1,776.495
1,hard,177,10,1,315.954
1,hard,178,1,1,602.616
1,hard,178,2,0,244.926
1,hard,178,3,0,366.288
1,hard,178,4,0,257.465
1,hard,178,5,1,281.659
1,hard,178,6,0,395.564
1,hard,178,7,1,741.823
1,hard,178,8,0,373.537
1,hard,178,9,1,611.676
1,hard,178,10,0,425.532
1,hard,179,1,1,620.177
1,hard,179,2,0,287.452
1,hard,179,3,0,511.552
1,hard,179,4,0,319.638
1,hard,179,5,0,318.627
1,hard,179,6,0,388.823
1,hard,179,7,1,593.096
1,hard,179,8,0,452.442
1,hard,179,9,1,786.91
1,hard,179,10,1,331.855
1,hard,180,1,0,922.758
1,hard,180,2,0,295.306
1,hard,180,3,1,359.084
1,hard,180,4,0,305.572
1,hard,180,5,1,332.602
1,hard,180,6,0,449.378
1,hard,180,7,1,614.378
1,hard,180,8,0,445.265
1,hard,180,9,1,815.057
1,hard,180,10,1,374.227
1,hard,181,1,0,857.451
1,hard,181,2,0,216.213
1,hard,181,3,0,402.463
1,hard,181,4,0,345.562
1,hard,181,5,1,239.542
1,hard,181,6,0,399.256
1,hard,181,7,0,702.243
1,hard,181,8,0,377.722
1,hard,181,9,1,929.738
1,hard,181,10,0,342.829
1,hard,182,1,1,666.187
1,hard,182,2,0,305.181
1,hard,182,3,1,362.883
1,hard,182,4,0,343.327
1,hard,182,5,1,329.802
1,hard,182,6,0,431.187
1,hard,182,7,0,794.565
1,hard,182,8,0,365.541
1,hard,182,9,0,977.499
1,hard,182,10,1,288.476
1,hard,183,1,1,750.017
1,hard,183,2,0,287.003
1,hard,183,3,1,377.21
1,hard,183,4,1,260.858
1,hard,183,5,0,395.26
1,hard,183,6,0,388.115
1,hard,183,7,1,596.426
1,hard,183,8,0,365.377
1,hard,183,9,1,776.243
1,hard,183,10,1,379.196
1,hard,184,1,0,806.466
1,hard,184,2,1,210.753
1,hard,184,3,1,395.032
1,hard,184,4,1,218.056
1,hard,184,5,1,368.781
1,hard,184,6,1,352.932
1,hard,184,7,1,594.79
1,hard,184,8,0,383.913
1,hard,184,9,1,907.895
1,hard,184,10,1,323.481
1,hard,185,1,1,648.935
1,hard,185,2,0,237.638
1,hard,185,3,1,356.483
1,hard,185,4,1,271.294
1,hard,185,5,0,372.417
1,hard,185,6,0,448.917
1,hard,185,7,1,684.841
1,hard,185,8,1,327.404
1,hard,185,9,1,938.579
1,hard,185,10,0,437.01
1,hard,186,1,1,646.007
1,hard,186,2,0,229.79
1,hard,186,3,0,467.272
1,hard,186,4,0,316.274
1,hard,186,5,1,307.2
1,hard,186,6,0,425.13
1,hard,186,7,1,573.341
1,hard,186,8,0,366.245
1,hard,186,9,1,715.18
1,hard,186,10,0,388.68
1,hard,187,1,1,628.787
1,hard,187,2,1,217.924
1,hard,187,3,0,456.564
1,hard,187,4,0,277.853
1,hard,187,5,1,297.195
1,hard,187,6,0,435.665
1,hard,187,7,1,692.373
1,hard,187,8,0,348.017
1,hard,187,9,1,728.914
1,hard,187,10,1,304.847
1,hard,188,1,1,593.474
1,hard,188,2,0,304.529
1,hard,188,3,1,354.304
1,hard,188,4,1,253.846
1,hard,188,5,1,297.978
1,hard,188,6,0,457.57
1,hard,188,7,0,850.179
1,hard,188,8,0,323.193
1,hard,188,9,0,935.377
1,hard,188,10,0,429.979
1,hard,189,1,0,811.022
1,hard,189,2,0,286.008
1,hard,189,3,0,416.47
1,hard,189,4,0,311.303
1,hard,189,5,1,358.603
1,hard,189,6,0,419.29
1,hard,189,7,1,542.816
1,hard,189,8,0,340.068
1,hard,189,9,1,763.693
1,hard,189,10,0,390.048
1,hard,190,1,1,688.267
1,hard,190,2,0,284.095
1,hard,190,3,0,412.664
1,hard,190,4,1,256.452
1,hard,190,5,1,370.881
1,hard,190,6,0,457.559
1,hard,190,7,1,594.194
1,hard,190,8,0,397.097
1,hard,190,9,1,822.638
1,hard,190,10,1,316.112
1,hard,191,1,1,625.692
1,hard,191,2,0,233.079
1,hard,191,3,1,345.147
1,hard,191,4,1,261.082
1,hard,191,5,0,439.736
1,hard,191,6,0,561.854
1,hard,191,7,1,647.594
1,hard,191,8,0,397.83
1,hard,191,9,1,889.589
1,hard,191,10,1,334.72
1,hard,192,1,1,845.747
1,hard,192,2,0,279.746
1,hard,192,3,1,377.338
1,hard,192,4,0,323.467
1,hard,192,5,1,299.953
1,hard,192,6,0,470.556
1,hard,192,7,0,737.561
1,hard,192,8,0,408.184
1,hard,192,9,1,643.548
1,hard,192,10,1,336.437
1,hard,193,1,1,720.833
1,hard,193,2,0,342.666
1,hard,193,3,1,310.501
1,hard,193,4,1,241.567
1,hard,193,5,1,326.96
1,hard,193,6,0,399.696
1,hard,193,7,1,599.489
1,hard,193,8,0,390.304
1,hard,193,9,0,1020.971
1,hard,193,10,0,375.683
1,hard,194,1,1,606.814
1,hard,194,2,1,189.53
1,hard,194,3,1,344.932
1,hard,194,4,0,318.081
1,hard,194,5,1,331.318
1,hard,194,6,0,435.759
1,hard,194,7,1,573.306
1,hard,194,8,0,347.135
1,hard,194,9,1,726.089
1,hard,194,10,1,286.785
1,hard,195,1,1,717.095
1,hard,195,2,1,204.596
1,hard,195,3,0,430.567
1,hard,195,4,1,231.857
1,hard,195,5,0,416.951
1,hard,195,6,1,375.693
1,hard,195,7,1,579.995
1,hard,195,8,0,389.846
1,hard,195,9,1,753.099
1,hard,195,10,1,356.818
1,hard,196,1,1,706.274
1,hard,196,2,0,251.848
1,hard,196,3,1,349.465
1,hard,196,4,1,265.756
1,hard,196,5,0,366.74
1,hard,196,6,0,434.817
1,hard,196,7,1,616.974
1,hard,196,8,0,413.971
1,hard,196,9,1,657.767
1,hard,196,10,0,379.516
1,hard,197,1,1,635.896
1,hard,197,2,0,291.156
1,hard,197,3,0,417.742
1,hard,197,4,0,307.781
1,hard,197,5,1,294.412
1,hard,197,6,1,311.137
1,hard,197,7,0,803.248
1,hard,197,8,0,367.211
1,hard,197,9,1,771.262
1,hard,197,10,0,369.125
1,hard,198,1,0,763.032
1,hard,198,2,0,340.436
1,hard,198,3,1,300.936
1,hard,198,4,1,280.559
1,hard,198,5,1,286.073
1,hard,198,6,1,379.839
1,hard,198,7,0,877.977
1,hard,198,8,0,423.471
1,hard,198,9,1,853.743
1,hard,198,10,1,364.56
1,hard,199,1,1,807.634
1,hard,199,2,1,227.214
1,hard,199,3,0,447.47
1,hard,199,4,0,312.357
1,hard,199,5,1,314.082
1,hard,199,6,0,519.857
1,hard,199,7,0,706.156
1,hard,199,8,0,336.139
1,hard,199,9,0,987.806
1,hard,199,10,0,418.991
1,hard,200,1,1,556.566
1,hard,200,2,0,236.504
1,hard,200,3,0,380.27
1,hard,200,4,0,305.999
1,hard,200,5,0,329.667
1,hard,200,6,0,367.515
1,hard,200,7,1,802.676
1,hard,200,8,0,398.893
1,hard,200,9,1,723.916
1,hard,200,10,0,338.627
1,hard,201,1,1,558.565
1,hard,201,2,1,253.301
1,hard,201,3,0,420.824
1,hard,201,4,0,306.232
1,hard,201,5,1,298.75
1,hard,201,6,0,422.246
1,hard,201,7,0,669.886
1,hard,201,8,0,322.85
1,hard,201,9,1,741.217
1,hard,201,10,0,407.263
1,hard,202,1,1,637.968
1,hard,202,2,0,275.189
1,hard,202,3,0,386.711
1,hard,202,4,0,315.596
1,hard,202,5,1,304.299
1,hard,202,6,0,430.287
1,hard,202,7,0,742.406
1,hard,202,8,0,312.635
1,hard,202,9,0,946.554
1,hard,202,10,1,364.218
1,hard,203,1,1,638.342
1,hard,203,2,0,281.069
1,hard,203,3,1,404.254
1,hard,203,4,1,217.315
1,hard,203,5,0,449.626
1,hard,203,6,0,408.151
1,hard,203,7,1,621.573
1,hard,203,8,0,399.434
1,hard,203,9,1,717.72
1,hard,203,10,0,444.933
1,hard,204,1,1,704.25
1,hard,204,2,0,269.907
1,hard,204,3,1,364.23
1,hard,204,4,1,249.898
1,hard,204,5,1,313.139
1,hard,204,6,0,406.94
1,hard,204,7,1,539.239
1,hard,204,8,0,412.668
1,hard,204,9,1,765.662
1,hard,204,10,1,341.707
1,hard,205,1,1,576.814
1,hard,205,2,0,309.032
