,Trial,Filename,Response,RT,Label,Condition,Step,Subject
1,0,A15.wav,S,6135,S,10H,16,1
2,1,A14.wav,S,1726,S,10H,17,1
3,2,A12.wav,S,1832,S,10H,19,1
4,3,A17.wav,S,1863,S,10H,14,1
5,4,A19.wav,S,2089,S,10H,12,1
6,5,A16.wav,S,1773,S,10H,15,1
7,6,A17.wav,S,1746,S,10H,14,1
8,7,A16.wav,S,1392,S,10H,15,1
9,8,A15.wav,S,1915,S,10H,16,1
10,9,A19.wav,S,1561,S,10H,12,1
11,10,A14.wav,S,1603,S,10H,17,1
12,11,A12.wav,S,1724,S,10H,19,1
13,12,A15.wav,S,1484,S,10H,16,1
14,13,A14.wav,S,1931,S,10H,17,1
15,14,A12.wav,S,1755,S,10H,19,1
16,15,A17.wav,S,1897,S,10H,14,1
17,16,A19.wav,S,1390,S,10H,12,1
18,17,A16.wav,S,1527,S,10H,15,1
19,18,A19.wav,S,1644,S,10H,12,1
20,19,A14.wav,S,1522,S,10H,17,1
21,20,A16.wav,S,1495,S,10H,15,1
22,21,A15.wav,S,1785,S,10H,16,1
23,22,A17.wav,S,1545,S,10H,14,1
24,23,A12.wav,S,1566,S,10H,19,1
25,24,A12.wav,S,1327,S,10H,19,1
26,25,A14.wav,S,1522,S,10H,17,1
27,26,A19.wav,S,1316,S,10H,12,1
28,27,A15.wav,S,1378,S,10H,16,1
29,28,A17.wav,S,1327,S,10H,14,1
30,29,A16.wav,S,1465,S,10H,15,1
31,30,A16.wav,S,1451,S,10H,15,1
32,31,A19.wav,S,1376,S,10H,12,1
33,32,A15.wav,S,1243,S,10H,16,1
34,33,A12.wav,S,2454,S,10H,19,1
35,34,A17.wav,S,1493,S,10H,14,1
36,35,A14.wav,S,1552,S,10H,17,1
37,36,A17.wav,S,1620,S,10H,14,1
38,37,A15.wav,S,1515,S,10H,16,1
39,38,A12.wav,S,1443,S,10H,19,1
40,39,A19.wav,S,1546,S,10H,12,1
41,40,A16.wav,S,1507,S,10H,15,1
42,41,A14.wav,S,1522,S,10H,17,1
43,42,A17.wav,S,1172,S,10H,14,1
44,43,A16.wav,S,1361,S,10H,15,1
45,44,A15.wav,S,1661,S,10H,16,1
46,45,A14.wav,S,1553,S,10H,17,1
47,46,A19.wav,S,1661,S,10H,12,1
48,47,A12.wav,S,1415,S,10H,19,1
49,48,A16.wav,S,1123,S,10H,15,1
50,49,A19.wav,S,1358,S,10H,12,1
51,50,A12.wav,S,1338,S,10H,19,1
52,51,A14.wav,S,1533,S,10H,17,1
53,52,A15.wav,S,1513,S,10H,16,1
54,53,A17.wav,S,1502,S,10H,14,1
55,54,A19.wav,S,1321,S,10H,12,1
56,55,A15.wav,S,1534,S,10H,16,1
57,56,A17.wav,S,1549,S,10H,14,1
58,57,A12.wav,S,1485,S,10H,19,1
59,58,A14.wav,S,1993,S,10H,17,1
60,59,A16.wav,S,1483,S,10H,15,1
61,0,A19.wav,S,5701,S,10H,12,3
62,1,A16.wav,S,2371,S,10H,15,3
63,2,A12.wav,S,1647,S,10H,19,3
64,3,A15.wav,S,1495,S,10H,16,3
65,4,A14.wav,S,1366,S,10H,17,3
66,5,A17.wav,S,1418,S,10H,14,3
67,6,A14.wav,S,1139,S,10H,17,3
68,7,A17.wav,S,1201,S,10H,14,3
69,8,A19.wav,S,1170,S,10H,12,3
70,9,A16.wav,S,1135,S,10H,15,3
71,10,A12.wav,S,1266,S,10H,19,3
72,11,A15.wav,S,1203,S,10H,16,3
73,12,A17.wav,S,1233,S,10H,14,3
74,13,A14.wav,S,1371,S,10H,17,3
75,14,A12.wav,S,1732,S,10H,19,3
76,15,A19.wav,S,1494,S,10H,12,3
77,16,A15.wav,S,1170,S,10H,16,3
78,17,A16.wav,S,1428,S,10H,15,3
79,18,A15.wav,S,2009,S,10H,16,3
80,19,A12.wav,S,1529,S,10H,19,3
81,20,A19.wav,S,1167,S,10H,12,3
82,21,A17.wav,S,1146,S,10H,14,3
83,22,A16.wav,S,1182,S,10H,15,3
84,23,A14.wav,SH,1759,S,10H,17,3
85,24,A14.wav,SH,1667,S,10H,17,3
86,25,A15.wav,S,1169,S,10H,16,3
87,26,A17.wav,S,1076,S,10H,14,3
88,27,A16.wav,S,1151,S,10H,15,3
89,28,A12.wav,SH,1186,S,10H,19,3
90,29,A19.wav,S,1182,S,10H,12,3
91,30,A14.wav,S,1564,S,10H,17,3
92,31,A17.wav,S,1120,S,10H,14,3
93,32,A16.wav,S,1241,S,10H,15,3
94,33,A15.wav,S,1309,S,10H,16,3
95,34,A19.wav,S,1946,S,10H,12,3
96,35,A12.wav,SH,1122,S,10H,19,3
97,36,A12.wav,SH,1120,S,10H,19,3
98,37,A19.wav,S,1040,S,10H,12,3
99,38,A14.wav,SH,1042,S,10H,17,3
100,39,A17.wav,SH,1141,S,10H,14,3
101,40,A16.wav,SH,1087,S,10H,15,3
102,41,A15.wav,SH,1141,S,10H,16,3
103,42,A16.wav,SH,2269,S,10H,15,3
104,43,A17.wav,S,1522,S,10H,14,3
105,44,A12.wav,SH,1029,S,10H,19,3
106,45,A14.wav,S,1169,S,10H,17,3
107,46,A19.wav,S,1186,S,10H,12,3
108,47,A15.wav,S,1175,S,10H,16,3
109,48,A15.wav,S,996,S,10H,16,3
110,49,A19.wav,S,1160,S,10H,12,3
111,50,A14.wav,S,1248,S,10H,17,3
112,51,A12.wav,SH,2462,S,10H,19,3
113,52,A16.wav,S,1394,S,10H,15,3
114,53,A17.wav,S,1523,S,10H,14,3
115,54,A12.wav,SH,1174,S,10H,19,3
116,55,A14.wav,SH,1558,S,10H,17,3
117,56,A15.wav,S,1215,S,10H,16,3
118,57,A17.wav,S,1235,S,10H,14,3
119,58,A16.wav,S,1121,S,10H,15,3
120,59,A19.wav,S,1100,S,10H,12,3
121,0,A15.wav,SH,8283,S,10H,16,4
122,1,A14.wav,SH,1811,S,10H,17,4
123,2,A16.wav,S,2117,S,10H,15,4
124,3,A12.wav,SH,1865,S,10H,19,4
125,4,A17.wav,S,2337,S,10H,14,4
126,5,A19.wav,S,1536,S,10H,12,4
127,6,A15.wav,S,1368,S,10H,16,4
128,7,A16.wav,S,1378,S,10H,15,4
129,8,A19.wav,S,1284,S,10H,12,4
130,9,A14.wav,S,1513,S,10H,17,4
131,10,A12.wav,SH,1472,S,10H,19,4
132,11,A17.wav,S,1770,S,10H,14,4
133,12,A16.wav,S,1360,S,10H,15,4
134,13,A14.wav,S,1279,S,10H,17,4
135,14,A15.wav,S,1310,S,10H,16,4
136,15,A17.wav,S,1320,S,10H,14,4
137,16,A19.wav,S,1369,S,10H,12,4
138,17,A12.wav,SH,1491,S,10H,19,4
139,18,A12.wav,SH,1357,S,10H,19,4
140,19,A17.wav,S,1361,S,10H,14,4
141,20,A16.wav,SH,1333,S,10H,15,4
142,21,A14.wav,SH,1315,S,10H,17,4
143,22,A15.wav,SH,1517,S,10H,16,4
144,23,A19.wav,S,1480,S,10H,12,4
145,24,A19.wav,SH,1376,S,10H,12,4
146,25,A17.wav,S,1531,S,10H,14,4
147,26,A15.wav,SH,1372,S,10H,16,4
148,27,A14.wav,SH,1400,S,10H,17,4
149,28,A12.wav,SH,1432,S,10H,19,4
150,29,A16.wav,S,1315,S,10H,15,4
151,30,A17.wav,S,1451,S,10H,14,4
152,31,A12.wav,SH,1541,S,10H,19,4
153,32,A14.wav,SH,1351,S,10H,17,4
154,33,A16.wav,S,1448,S,10H,15,4
155,34,A19.wav,S,1552,S,10H,12,4
156,35,A15.wav,SH,1589,S,10H,16,4
157,36,A17.wav,SH,2562,S,10H,14,4
158,37,A12.wav,SH,2083,S,10H,19,4
159,38,A14.wav,SH,1471,S,10H,17,4
160,39,A19.wav,S,1392,S,10H,12,4
161,40,A15.wav,SH,1285,S,10H,16,4
162,41,A16.wav,SH,1382,S,10H,15,4
163,42,A16.wav,SH,1399,S,10H,15,4
164,43,A15.wav,SH,1219,S,10H,16,4
165,44,A17.wav,SH,1365,S,10H,14,4
166,45,A12.wav,SH,1250,S,10H,19,4
167,46,A19.wav,S,1319,S,10H,12,4
168,47,A14.wav,SH,1501,S,10H,17,4
169,48,A12.wav,SH,1337,S,10H,19,4
170,49,A16.wav,SH,1332,S,10H,15,4
171,50,A19.wav,SH,1367,S,10H,12,4
172,51,A17.wav,SH,1313,S,10H,14,4
173,52,A14.wav,SH,1203,S,10H,17,4
174,53,A15.wav,S,1259,S,10H,16,4
175,54,A15.wav,S,1252,S,10H,16,4
176,55,A19.wav,S,1333,S,10H,12,4
177,56,A17.wav,S,1386,S,10H,14,4
178,57,A16.wav,SH,1452,S,10H,15,4
179,58,A14.wav,S,1445,S,10H,17,4
180,59,A12.wav,SH,1442,S,10H,19,4
181,0,A15.wav,S,8006,S,10H,16,5
182,1,A17.wav,S,7570,S,10H,14,5
183,2,A16.wav,S,7541,S,10H,15,5
184,3,A14.wav,S,6334,S,10H,17,5
185,4,A19.wav,S,2439,S,10H,12,5
186,5,A12.wav,S,4695,S,10H,19,5
187,6,A17.wav,S,1843,S,10H,14,5
188,7,A16.wav,S,1810,S,10H,15,5
189,8,A15.wav,S,1571,S,10H,16,5
190,9,A19.wav,S,14067,S,10H,12,5
191,10,A12.wav,S,1964,S,10H,19,5
192,11,A14.wav,S,1339,S,10H,17,5
193,12,A14.wav,S,1319,S,10H,17,5
194,13,A12.wav,S,1595,S,10H,19,5
195,14,A16.wav,S,2727,S,10H,15,5
196,15,A15.wav,S,8956,S,10H,16,5
197,16,A19.wav,S,2998,S,10H,12,5
198,17,A17.wav,S,1932,S,10H,14,5
199,18,A16.wav,S,1772,S,10H,15,5
200,19,A19.wav,S,2067,S,10H,12,5
201,20,A17.wav,S,2097,S,10H,14,5
202,21,A15.wav,S,1970,S,10H,16,5
203,22,A12.wav,S,1252,S,10H,19,5
204,23,A14.wav,S,1591,S,10H,17,5
205,24,A17.wav,S,1363,S,10H,14,5
206,25,A14.wav,SH,4723,S,10H,17,5
207,26,A15.wav,S,3511,S,10H,16,5
208,27,A19.wav,S,1577,S,10H,12,5
209,28,A16.wav,S,1883,S,10H,15,5
210,29,A12.wav,S,4139,S,10H,19,5
211,30,A15.wav,S,11657,S,10H,16,5
212,31,A19.wav,S,1170,S,10H,12,5
213,32,A12.wav,S,1397,S,10H,19,5
214,33,A17.wav,S,1139,S,10H,14,5
215,34,A16.wav,S,3972,S,10H,15,5
216,35,A14.wav,S,11219,S,10H,17,5
217,36,A16.wav,S,2267,S,10H,15,5
218,37,A15.wav,S,1136,S,10H,16,5
219,38,A19.wav,S,1797,S,10H,12,5
220,39,A12.wav,S,1308,S,10H,19,5
221,40,A14.wav,S,1059,S,10H,17,5
222,41,A17.wav,S,1117,S,10H,14,5
223,42,A19.wav,S,1153,S,10H,12,5
224,43,A17.wav,S,1001,S,10H,14,5
225,44,A16.wav,S,2903,S,10H,15,5
226,45,A12.wav,S,1341,S,10H,19,5
227,46,A14.wav,S,1043,S,10H,17,5
228,47,A15.wav,S,2875,S,10H,16,5
229,48,A16.wav,S,2674,S,10H,15,5
230,49,A17.wav,S,1781,S,10H,14,5
231,50,A12.wav,S,1095,S,10H,19,5
232,51,A19.wav,S,4953,S,10H,12,5
233,52,A15.wav,S,1364,S,10H,16,5
234,53,A14.wav,S,2072,S,10H,17,5
235,54,A12.wav,S,1898,S,10H,19,5
236,55,A16.wav,S,1871,S,10H,15,5
237,56,A14.wav,S,1491,S,10H,17,5
238,57,A15.wav,S,1338,S,10H,16,5
239,58,A17.wav,S,1531,S,10H,14,5
240,59,A19.wav,S,2380,S,10H,12,5
241,0,A19.wav,SH,3679,S,10H,12,7
242,1,A17.wav,SH,1312,S,10H,14,7
243,2,A12.wav,SH,1078,S,10H,19,7
244,3,A15.wav,SH,951,S,10H,16,7
245,4,A14.wav,SH,1888,S,10H,17,7
246,5,A16.wav,SH,1177,S,10H,15,7
247,6,A16.wav,S,8740,S,10H,15,7
248,7,A14.wav,S,1796,S,10H,17,7
249,8,A12.wav,S,874,S,10H,19,7
250,9,A17.wav,S,1472,S,10H,14,7
251,10,A19.wav,SH,911,S,10H,12,7
252,11,A15.wav,SH,1158,S,10H,16,7
253,12,A12.wav,SH,1033,S,10H,19,7
254,13,A17.wav,SH,1742,S,10H,14,7
255,14,A15.wav,SH,5737,S,10H,16,7
256,15,A14.wav,SH,3319,S,10H,17,7
257,16,A16.wav,SH,1761,S,10H,15,7
258,17,A19.wav,SH,2473,S,10H,12,7
259,18,A15.wav,SH,4035,S,10H,16,7
260,19,A14.wav,SH,1540,S,10H,17,7
261,20,A12.wav,SH,884,S,10H,19,7
262,21,A17.wav,SH,3240,S,10H,14,7
263,22,A16.wav,SH,7792,S,10H,15,7
264,23,A19.wav,SH,896,S,10H,12,7
265,24,A15.wav,SH,3656,S,10H,16,7
266,25,A19.wav,SH,919,S,10H,12,7
267,26,A16.wav,SH,809,S,10H,15,7
268,27,A17.wav,SH,942,S,10H,14,7
269,28,A12.wav,SH,921,S,10H,19,7
270,29,A14.wav,SH,808,S,10H,17,7
271,30,A17.wav,SH,1555,S,10H,14,7
272,31,A12.wav,SH,1229,S,10H,19,7
273,32,A15.wav,SH,910,S,10H,16,7
274,33,A14.wav,SH,877,S,10H,17,7
275,34,A16.wav,SH,1363,S,10H,15,7
276,35,A19.wav,SH,1739,S,10H,12,7
277,36,A17.wav,SH,2271,S,10H,14,7
278,37,A19.wav,SH,823,S,10H,12,7
279,38,A16.wav,SH,851,S,10H,15,7
280,39,A15.wav,SH,1019,S,10H,16,7
281,40,A14.wav,SH,1147,S,10H,17,7
282,41,A12.wav,SH,944,S,10H,19,7
283,42,A16.wav,SH,898,S,10H,15,7
284,43,A12.wav,SH,1504,S,10H,19,7
285,44,A15.wav,SH,2136,S,10H,16,7
286,45,A17.wav,SH,3403,S,10H,14,7
287,46,A14.wav,SH,1278,S,10H,17,7
288,47,A19.wav,SH,3266,S,10H,12,7
289,48,A15.wav,SH,2762,S,10H,16,7
290,49,A16.wav,SH,894,S,10H,15,7
291,50,A19.wav,SH,932,S,10H,12,7
292,51,A17.wav,SH,1089,S,10H,14,7
293,52,A14.wav,SH,1009,S,10H,17,7
294,53,A12.wav,SH,2180,S,10H,19,7
295,54,A15.wav,SH,2209,S,10H,16,7
296,55,A19.wav,SH,1890,S,10H,12,7
297,56,A14.wav,SH,1551,S,10H,17,7
298,57,A12.wav,SH,1852,S,10H,19,7
299,58,A16.wav,SH,944,S,10H,15,7
300,59,A17.wav,SH,916,S,10H,14,7
301,0,A19.wav,S,3443,S,10H,12,8
302,1,A16.wav,S,1314,S,10H,15,8
303,2,A17.wav,S,1252,S,10H,14,8
304,3,A14.wav,S,2314,S,10H,17,8
305,4,A12.wav,S,1624,S,10H,19,8
306,5,A15.wav,S,1426,S,10H,16,8
307,6,A12.wav,S,1077,S,10H,19,8
308,7,A14.wav,S,926,S,10H,17,8
309,8,A16.wav,S,1039,S,10H,15,8
310,9,A15.wav,S,1160,S,10H,16,8
311,10,A19.wav,S,1149,S,10H,12,8
312,11,A17.wav,S,979,S,10H,14,8
313,12,A12.wav,S,1417,S,10H,19,8
314,13,A17.wav,S,1132,S,10H,14,8
315,14,A15.wav,S,1063,S,10H,16,8
316,15,A19.wav,S,1058,S,10H,12,8
317,16,A16.wav,S,926,S,10H,15,8
318,17,A14.wav,S,1084,S,10H,17,8
319,18,A15.wav,S,1622,S,10H,16,8
320,19,A16.wav,S,1301,S,10H,15,8
321,20,A17.wav,S,9580,S,10H,14,8
322,21,A12.wav,S,4488,S,10H,19,8
323,22,A19.wav,S,1358,S,10H,12,8
324,23,A14.wav,SH,1418,S,10H,17,8
325,24,A14.wav,S,1244,S,10H,17,8
326,25,A17.wav,S,1218,S,10H,14,8
327,26,A16.wav,S,1192,S,10H,15,8
328,27,A19.wav,S,1327,S,10H,12,8
329,28,A15.wav,S,1245,S,10H,16,8
330,29,A12.wav,S,1176,S,10H,19,8
331,30,A19.wav,S,1228,S,10H,12,8
332,31,A15.wav,S,1114,S,10H,16,8
333,32,A17.wav,S,1058,S,10H,14,8
334,33,A14.wav,S,945,S,10H,17,8
335,34,A12.wav,S,973,S,10H,19,8
336,35,A16.wav,S,1038,S,10H,15,8
337,36,A15.wav,S,953,S,10H,16,8
338,37,A16.wav,S,978,S,10H,15,8
339,38,A17.wav,S,1196,S,10H,14,8
340,39,A14.wav,S,1059,S,10H,17,8
341,40,A19.wav,S,1274,S,10H,12,8
342,41,A12.wav,S,1630,S,10H,19,8
343,42,A14.wav,S,1153,S,10H,17,8
344,43,A19.wav,S,1222,S,10H,12,8
345,44,A17.wav,S,1114,S,10H,14,8
346,45,A12.wav,S,1060,S,10H,19,8
347,46,A15.wav,S,1034,S,10H,16,8
348,47,A16.wav,S,1055,S,10H,15,8
349,48,A12.wav,S,2147,S,10H,19,8
350,49,A19.wav,S,1244,S,10H,12,8
351,50,A17.wav,S,970,S,10H,14,8
352,51,A15.wav,S,909,S,10H,16,8
353,52,A14.wav,S,913,S,10H,17,8
354,53,A16.wav,S,899,S,10H,15,8
355,54,A17.wav,S,1228,S,10H,14,8
356,55,A16.wav,S,1315,S,10H,15,8
357,56,A14.wav,S,1021,S,10H,17,8
358,57,A12.wav,S,1310,S,10H,19,8
359,58,A19.wav,S,1036,S,10H,12,8
360,59,A15.wav,S,1140,S,10H,16,8
361,0,A19.wav,SH,3004,SH,10H,12,9
362,1,A14.wav,SH,1797,SH,10H,17,9
363,2,A12.wav,SH,2014,SH,10H,19,9
364,3,A16.wav,SH,2278,SH,10H,15,9
365,4,A17.wav,SH,2127,SH,10H,14,9
366,5,A15.wav,SH,1622,SH,10H,16,9
367,6,A15.wav,SH,1454,SH,10H,16,9
368,7,A17.wav,SH,1086,SH,10H,14,9
369,8,A16.wav,SH,1239,SH,10H,15,9
370,9,A19.wav,SH,1361,SH,10H,12,9
371,10,A14.wav,SH,1454,SH,10H,17,9
372,11,A12.wav,SH,1064,SH,10H,19,9
373,12,A17.wav,SH,1174,SH,10H,14,9
374,13,A12.wav,SH,1118,SH,10H,19,9
375,14,A15.wav,SH,1365,SH,10H,16,9
376,15,A14.wav,SH,1215,SH,10H,17,9
377,16,A16.wav,SH,958,SH,10H,15,9
378,17,A19.wav,SH,1158,SH,10H,12,9
379,18,A17.wav,SH,1193,SH,10H,14,9
380,19,A12.wav,SH,1007,SH,10H,19,9
381,20,A15.wav,SH,1150,SH,10H,16,9
382,21,A14.wav,SH,1127,SH,10H,17,9
383,22,A19.wav,SH,1142,SH,10H,12,9
384,23,A16.wav,SH,1294,SH,10H,15,9
385,24,A14.wav,SH,1129,SH,10H,17,9
386,25,A16.wav,SH,1239,SH,10H,15,9
387,26,A12.wav,SH,1214,SH,10H,19,9
388,27,A19.wav,SH,1103,SH,10H,12,9
389,28,A17.wav,SH,1110,SH,10H,14,9
390,29,A15.wav,SH,1606,SH,10H,16,9
391,30,A12.wav,SH,1340,SH,10H,19,9
392,31,A15.wav,SH,1104,SH,10H,16,9
393,32,A14.wav,SH,1183,SH,10H,17,9
394,33,A19.wav,SH,1231,SH,10H,12,9
395,34,A16.wav,SH,1150,SH,10H,15,9
396,35,A17.wav,SH,1119,SH,10H,14,9
397,36,A16.wav,SH,1222,SH,10H,15,9
398,37,A17.wav,SH,1158,SH,10H,14,9
399,38,A12.wav,SH,1239,SH,10H,19,9
400,39,A19.wav,SH,1543,SH,10H,12,9
401,40,A14.wav,SH,1110,SH,10H,17,9
402,41,A15.wav,SH,1175,SH,10H,16,9
403,42,A17.wav,SH,1262,SH,10H,14,9
404,43,A16.wav,SH,1191,SH,10H,15,9
405,44,A12.wav,SH,1086,SH,10H,19,9
406,45,A19.wav,SH,1054,SH,10H,12,9
407,46,A15.wav,SH,1062,SH,10H,16,9
408,47,A14.wav,SH,1021,SH,10H,17,9
409,48,A16.wav,SH,1094,SH,10H,15,9
410,49,A15.wav,SH,1159,SH,10H,16,9
411,50,A12.wav,SH,1055,SH,10H,19,9
412,51,A19.wav,SH,1039,SH,10H,12,9
413,52,A14.wav,SH,942,SH,10H,17,9
414,53,A17.wav,SH,1031,SH,10H,14,9
415,54,A15.wav,SH,1134,SH,10H,16,9
416,55,A12.wav,SH,1255,SH,10H,19,9
417,56,A17.wav,SH,1063,SH,10H,14,9
418,57,A14.wav,SH,1101,SH,10H,17,9
419,58,A16.wav,SH,1070,SH,10H,15,9
420,59,A19.wav,SH,1047,SH,10H,12,9
421,0,A12.wav,SH,4511,SH,10H,19,10
422,1,A14.wav,SH,5427,SH,10H,17,10
423,2,A16.wav,SH,4377,SH,10H,15,10
424,3,A15.wav,SH,3043,SH,10H,16,10
425,4,A17.wav,SH,2204,SH,10H,14,10
426,5,A19.wav,SH,1976,SH,10H,12,10
427,6,A17.wav,SH,1865,SH,10H,14,10
428,7,A15.wav,SH,1916,SH,10H,16,10
429,8,A16.wav,SH,1618,SH,10H,15,10
430,9,A19.wav,SH,1834,SH,10H,12,10
431,10,A12.wav,SH,2380,SH,10H,19,10
432,11,A14.wav,S,2898,SH,10H,17,10
433,12,A16.wav,SH,2779,SH,10H,15,10
434,13,A17.wav,SH,3243,SH,10H,14,10
435,14,A15.wav,SH,1947,SH,10H,16,10
436,15,A12.wav,SH,2218,SH,10H,19,10
437,16,A19.wav,S,2354,SH,10H,12,10
438,17,A14.wav,SH,2107,SH,10H,17,10
439,18,A15.wav,S,1756,SH,10H,16,10
440,19,A19.wav,SH,3484,SH,10H,12,10
441,20,A12.wav,SH,1479,SH,10H,19,10
442,21,A14.wav,S,1428,SH,10H,17,10
443,22,A16.wav,S,1571,SH,10H,15,10
444,23,A17.wav,S,1556,SH,10H,14,10
445,24,A12.wav,SH,1186,SH,10H,19,10
446,25,A19.wav,SH,1409,SH,10H,12,10
447,26,A17.wav,SH,2139,SH,10H,14,10
448,27,A15.wav,S,2986,SH,10H,16,10
449,28,A14.wav,SH,2306,SH,10H,17,10
450,29,A16.wav,SH,1450,SH,10H,15,10
451,30,A19.wav,S,1402,SH,10H,12,10
452,31,A16.wav,S,1682,SH,10H,15,10
453,32,A15.wav,SH,1266,SH,10H,16,10
454,33,A12.wav,S,1545,SH,10H,19,10
455,34,A14.wav,S,1629,SH,10H,17,10
456,35,A17.wav,S,1489,SH,10H,14,10
457,36,A16.wav,SH,1132,SH,10H,15,10
458,37,A15.wav,S,1881,SH,10H,16,10
459,38,A19.wav,SH,1474,SH,10H,12,10
460,39,A17.wav,S,2002,SH,10H,14,10
461,40,A12.wav,SH,2139,SH,10H,19,10
462,41,A14.wav,SH,1650,SH,10H,17,10
463,42,A12.wav,SH,1058,SH,10H,19,10
464,43,A15.wav,S,1442,SH,10H,16,10
465,44,A14.wav,S,1511,SH,10H,17,10
466,45,A16.wav,S,2287,SH,10H,15,10
467,46,A17.wav,S,1546,SH,10H,14,10
468,47,A19.wav,S,1754,SH,10H,12,10
469,48,A17.wav,SH,1106,SH,10H,14,10
470,49,A14.wav,S,1844,SH,10H,17,10
471,50,A12.wav,SH,1218,SH,10H,19,10
472,51,A15.wav,SH,1363,SH,10H,16,10
473,52,A16.wav,S,1648,SH,10H,15,10
474,53,A19.wav,S,1340,SH,10H,12,10
475,54,A14.wav,SH,1170,SH,10H,17,10
476,55,A16.wav,SH,1162,SH,10H,15,10
477,56,A19.wav,S,1308,SH,10H,12,10
478,57,A12.wav,S,1257,SH,10H,19,10
479,58,A15.wav,S,1538,SH,10H,16,10
480,59,A17.wav,SH,1027,SH,10H,14,10
481,0,A14.wav,SH,3113,SH,10H,17,11
482,1,A19.wav,SH,1633,SH,10H,12,11
483,2,A12.wav,SH,1360,SH,10H,19,11
484,3,A17.wav,SH,1298,SH,10H,14,11
485,4,A16.wav,SH,1259,SH,10H,15,11
486,5,A15.wav,SH,1523,SH,10H,16,11
487,6,A17.wav,SH,1352,SH,10H,14,11
488,7,A14.wav,SH,1426,SH,10H,17,11
489,8,A19.wav,SH,1279,SH,10H,12,11
490,9,A12.wav,SH,1202,SH,10H,19,11
491,10,A16.wav,SH,996,SH,10H,15,11
492,11,A15.wav,SH,1201,SH,10H,16,11
493,12,A17.wav,SH,1304,SH,10H,14,11
494,13,A14.wav,SH,1313,SH,10H,17,11
495,14,A12.wav,SH,1010,SH,10H,19,11
496,15,A19.wav,S,2073,SH,10H,12,11
497,16,A15.wav,SH,1399,SH,10H,16,11
498,17,A16.wav,SH,1242,SH,10H,15,11
499,18,A19.wav,S,1272,SH,10H,12,11
500,19,A16.wav,SH,1243,SH,10H,15,11
501,20,A12.wav,S,1112,SH,10H,19,11
502,21,A14.wav,S,1111,SH,10H,17,11
503,22,A17.wav,S,1057,SH,10H,14,11
504,23,A15.wav,S,1160,SH,10H,16,11
505,24,A15.wav,S,1042,SH,10H,16,11
506,25,A17.wav,S,1095,SH,10H,14,11
507,26,A16.wav,S,906,SH,10H,15,11
508,27,A14.wav,S,958,SH,10H,17,11
509,28,A19.wav,SH,1082,SH,10H,12,11
510,29,A12.wav,SH,1120,SH,10H,19,11
511,30,A14.wav,S,1057,SH,10H,17,11
512,31,A16.wav,S,986,SH,10H,15,11
513,32,A15.wav,S,1164,SH,10H,16,11
514,33,A17.wav,S,1041,SH,10H,14,11
515,34,A12.wav,S,1137,SH,10H,19,11
516,35,A19.wav,S,1074,SH,10H,12,11
517,36,A15.wav,S,1210,SH,10H,16,11
518,37,A19.wav,S,1215,SH,10H,12,11
519,38,A12.wav,SH,992,SH,10H,19,11
520,39,A14.wav,S,1274,SH,10H,17,11
521,40,A16.wav,S,1185,SH,10H,15,11
522,41,A17.wav,S,1240,SH,10H,14,11
523,42,A17.wav,S,1179,SH,10H,14,11
524,43,A14.wav,S,800,SH,10H,17,11
525,44,A19.wav,S,977,SH,10H,12,11
526,45,A12.wav,SH,1313,SH,10H,19,11
527,46,A16.wav,S,1072,SH,10H,15,11
528,47,A15.wav,S,1038,SH,10H,16,11
529,48,A19.wav,S,1197,SH,10H,12,11
530,49,A15.wav,S,1047,SH,10H,16,11
531,50,A14.wav,S,1155,SH,10H,17,11
532,51,A12.wav,SH,1056,SH,10H,19,11
533,52,A17.wav,S,979,SH,10H,14,11
534,53,A16.wav,SH,1175,SH,10H,15,11
535,54,A15.wav,SH,1256,SH,10H,16,11
536,55,A17.wav,SH,1041,SH,10H,14,11
537,56,A12.wav,SH,995,SH,10H,19,11
538,57,A16.wav,SH,1067,SH,10H,15,11
539,58,A14.wav,SH,1647,SH,10H,17,11
540,59,A19.wav,S,1043,SH,10H,12,11
541,0,A15.wav,SH,4578,SH,10H,16,13
542,1,A14.wav,SH,2092,SH,10H,17,13
543,2,A12.wav,SH,1482,SH,10H,19,13
544,3,A17.wav,SH,1274,SH,10H,14,13
545,4,A19.wav,SH,1211,SH,10H,12,13
546,5,A16.wav,SH,1402,SH,10H,15,13
547,6,A16.wav,SH,1018,SH,10H,15,13
548,7,A15.wav,SH,956,SH,10H,16,13
549,8,A14.wav,SH,1034,SH,10H,17,13
550,9,A12.wav,SH,1299,SH,10H,19,13
551,10,A19.wav,S,1332,SH,10H,12,13
552,11,A17.wav,SH,1332,SH,10H,14,13
553,12,A12.wav,SH,1372,SH,10H,19,13
554,13,A14.wav,SH,1356,SH,10H,17,13
555,14,A16.wav,S,1557,SH,10H,15,13
556,15,A19.wav,S,1371,SH,10H,12,13
557,16,A17.wav,S,1516,SH,10H,14,13
558,17,A15.wav,SH,1324,SH,10H,16,13
559,18,A19.wav,S,1320,SH,10H,12,13
560,19,A14.wav,SH,1047,SH,10H,17,13
561,20,A15.wav,SH,1211,SH,10H,16,13
562,21,A12.wav,SH,1322,SH,10H,19,13
563,22,A17.wav,SH,1500,SH,10H,14,13
564,23,A16.wav,SH,1339,SH,10H,15,13
565,24,A12.wav,SH,1278,SH,10H,19,13
566,25,A14.wav,SH,1219,SH,10H,17,13
567,26,A19.wav,S,1202,SH,10H,12,13
568,27,A17.wav,S,1939,SH,10H,14,13
569,28,A15.wav,SH,1307,SH,10H,16,13
570,29,A16.wav,SH,1220,SH,10H,15,13
571,30,A19.wav,S,1260,SH,10H,12,13
572,31,A17.wav,S,1379,SH,10H,14,13
573,32,A14.wav,SH,1252,SH,10H,17,13
574,33,A15.wav,SH,1260,SH,10H,16,13
575,34,A16.wav,SH,1220,SH,10H,15,13
576,35,A12.wav,SH,1196,SH,10H,19,13
577,36,A12.wav,SH,1204,SH,10H,19,13
578,37,A17.wav,S,1302,SH,10H,14,13
579,38,A16.wav,SH,1092,SH,10H,15,13
580,39,A15.wav,SH,1026,SH,10H,16,13
581,40,A19.wav,S,1067,SH,10H,12,13
582,41,A14.wav,SH,1001,SH,10H,17,13
583,42,A15.wav,SH,997,SH,10H,16,13
584,43,A14.wav,SH,1009,SH,10H,17,13
585,44,A17.wav,S,1028,SH,10H,14,13
586,45,A16.wav,S,1163,SH,10H,15,13
587,46,A19.wav,S,1212,SH,10H,12,13
588,47,A12.wav,SH,1124,SH,10H,19,13
589,48,A14.wav,SH,1223,SH,10H,17,13
590,49,A16.wav,S,1147,SH,10H,15,13
591,50,A15.wav,SH,1235,SH,10H,16,13
592,51,A12.wav,SH,1132,SH,10H,19,13
593,52,A19.wav,S,1100,SH,10H,12,13
594,53,A17.wav,S,1171,SH,10H,14,13
595,54,A14.wav,SH,1275,SH,10H,17,13
596,55,A12.wav,SH,1363,SH,10H,19,13
597,56,A16.wav,S,1235,SH,10H,15,13
598,57,A19.wav,S,1323,SH,10H,12,13
599,58,A15.wav,SH,1228,SH,10H,16,13
600,59,A17.wav,SH,1212,SH,10H,14,13
601,0,A12.wav,SH,2396,SH,10H,19,14
602,1,A14.wav,SH,1127,SH,10H,17,14
603,2,A19.wav,SH,1155,SH,10H,12,14
604,3,A16.wav,SH,1143,SH,10H,15,14
605,4,A17.wav,S,1741,SH,10H,14,14
606,5,A15.wav,SH,1507,SH,10H,16,14
607,6,A19.wav,S,2485,SH,10H,12,14
608,7,A17.wav,S,2159,SH,10H,14,14
609,8,A14.wav,S,2596,SH,10H,17,14
610,9,A16.wav,S,1414,SH,10H,15,14
611,10,A12.wav,SH,1506,SH,10H,19,14
612,11,A15.wav,S,1150,SH,10H,16,14
613,12,A17.wav,S,1101,SH,10H,14,14
614,13,A19.wav,S,1206,SH,10H,12,14
615,14,A14.wav,S,4662,SH,10H,17,14
616,15,A15.wav,S,1344,SH,10H,16,14
617,16,A16.wav,S,1355,SH,10H,15,14
618,17,A12.wav,SH,2955,SH,10H,19,14
619,18,A14.wav,S,2371,SH,10H,17,14
620,19,A17.wav,S,1424,SH,10H,14,14
621,20,A19.wav,S,1430,SH,10H,12,14
622,21,A12.wav,S,1306,SH,10H,19,14
623,22,A16.wav,S,1559,SH,10H,15,14
624,23,A15.wav,S,1654,SH,10H,16,14
625,24,A15.wav,SH,5288,SH,10H,16,14
626,25,A17.wav,S,1212,SH,10H,14,14
627,26,A16.wav,S,2775,SH,10H,15,14
628,27,A12.wav,SH,1541,SH,10H,19,14
629,28,A19.wav,S,1060,SH,10H,12,14
630,29,A14.wav,S,1116,SH,10H,17,14
631,30,A16.wav,S,983,SH,10H,15,14
632,31,A14.wav,S,998,SH,10H,17,14
633,32,A12.wav,S,1034,SH,10H,19,14
634,33,A17.wav,S,935,SH,10H,14,14
635,34,A19.wav,S,995,SH,10H,12,14
636,35,A15.wav,S,1044,SH,10H,16,14
637,36,A12.wav,S,1424,SH,10H,19,14
638,37,A15.wav,S,1084,SH,10H,16,14
639,38,A16.wav,S,1098,SH,10H,15,14
640,39,A19.wav,S,914,SH,10H,12,14
641,40,A14.wav,S,913,SH,10H,17,14
642,41,A17.wav,S,916,SH,10H,14,14
643,42,A15.wav,S,1029,SH,10H,16,14
644,43,A17.wav,S,980,SH,10H,14,14
645,44,A12.wav,S,1092,SH,10H,19,14
646,45,A16.wav,S,1170,SH,10H,15,14
647,46,A14.wav,S,1223,SH,10H,17,14
648,47,A19.wav,S,1517,SH,10H,12,14
649,48,A16.wav,S,1006,SH,10H,15,14
650,49,A17.wav,S,1363,SH,10H,14,14
651,50,A15.wav,S,1040,SH,10H,16,14
652,51,A14.wav,S,1262,SH,10H,17,14
653,52,A19.wav,S,1159,SH,10H,12,14
654,53,A12.wav,S,1368,SH,10H,19,14
655,54,A15.wav,S,1416,SH,10H,16,14
656,55,A19.wav,S,1616,SH,10H,12,14
657,56,A17.wav,S,1856,SH,10H,14,14
658,57,A14.wav,S,1349,SH,10H,17,14
659,58,A16.wav,S,1312,SH,10H,15,14
660,59,A12.wav,S,1370,SH,10H,19,14
661,0,A14.wav,S,5124,SH,10H,17,15
662,1,A12.wav,S,2619,SH,10H,19,15
663,2,A16.wav,S,2163,SH,10H,15,15
664,3,A15.wav,S,2063,SH,10H,16,15
665,4,A19.wav,S,2864,SH,10H,12,15
666,5,A17.wav,S,2241,SH,10H,14,15
667,6,A16.wav,S,1823,SH,10H,15,15
668,7,A15.wav,SH,1876,SH,10H,16,15
669,8,A12.wav,SH,1304,SH,10H,19,15
670,9,A14.wav,SH,1657,SH,10H,17,15
671,10,A19.wav,S,1136,SH,10H,12,15
672,11,A17.wav,S,1277,SH,10H,14,15
673,12,A12.wav,S,1443,SH,10H,19,15
674,13,A16.wav,S,1401,SH,10H,15,15
675,14,A14.wav,S,1713,SH,10H,17,15
676,15,A19.wav,S,1287,SH,10H,12,15
677,16,A17.wav,S,1203,SH,10H,14,15
678,17,A15.wav,S,1053,SH,10H,16,15
679,18,A15.wav,S,1100,SH,10H,16,15
680,19,A19.wav,S,1114,SH,10H,12,15
681,20,A12.wav,S,1166,SH,10H,19,15
682,21,A17.wav,S,1327,SH,10H,14,15
683,22,A16.wav,S,1377,SH,10H,15,15
684,23,A14.wav,S,1433,SH,10H,17,15
685,24,A17.wav,S,1327,SH,10H,14,15
686,25,A12.wav,SH,1653,SH,10H,19,15
687,26,A15.wav,S,1307,SH,10H,16,15
688,27,A14.wav,S,1314,SH,10H,17,15
689,28,A19.wav,S,1077,SH,10H,12,15
690,29,A16.wav,S,973,SH,10H,15,15
691,30,A16.wav,S,1210,SH,10H,15,15
692,31,A12.wav,SH,1220,SH,10H,19,15
693,32,A17.wav,S,1046,SH,10H,14,15
694,33,A14.wav,SH,1419,SH,10H,17,15
695,34,A19.wav,S,1081,SH,10H,12,15
696,35,A15.wav,SH,1282,SH,10H,16,15
697,36,A16.wav,SH,1208,SH,10H,15,15
698,37,A12.wav,SH,1017,SH,10H,19,15
699,38,A17.wav,S,1347,SH,10H,14,15
700,39,A19.wav,S,1137,SH,10H,12,15
701,40,A15.wav,SH,1535,SH,10H,16,15
702,41,A14.wav,SH,1236,SH,10H,17,15
703,42,A15.wav,SH,1239,SH,10H,16,15
704,43,A19.wav,S,1101,SH,10H,12,15
705,44,A16.wav,SH,1245,SH,10H,15,15
706,45,A12.wav,SH,1032,SH,10H,19,15
707,46,A14.wav,SH,1096,SH,10H,17,15
708,47,A17.wav,S,1343,SH,10H,14,15
709,48,A19.wav,S,1176,SH,10H,12,15
710,49,A17.wav,SH,2121,SH,10H,14,15
711,50,A16.wav,S,1225,SH,10H,15,15
712,51,A15.wav,SH,1262,SH,10H,16,15
713,52,A14.wav,SH,1191,SH,10H,17,15
714,53,A12.wav,SH,24449,SH,10H,19,15
715,54,A19.wav,SH,1538,SH,10H,12,15
716,55,A12.wav,SH,1069,SH,10H,19,15
717,56,A16.wav,SH,1347,SH,10H,15,15
718,57,A14.wav,SH,1120,SH,10H,17,15
719,58,A17.wav,S,1163,SH,10H,14,15
720,59,A15.wav,SH,1643,SH,10H,16,15
721,0,A14.wav,SH,5502,SH,10H,17,16
722,1,A12.wav,SH,3197,SH,10H,19,16
723,2,A16.wav,S,4973,SH,10H,15,16
724,3,A17.wav,S,1964,SH,10H,14,16
725,4,A15.wav,S,2020,SH,10H,16,16
726,5,A19.wav,S,1758,SH,10H,12,16
727,6,A17.wav,S,2053,SH,10H,14,16
728,7,A12.wav,SH,1541,SH,10H,19,16
729,8,A14.wav,SH,1188,SH,10H,17,16
730,9,A19.wav,S,1228,SH,10H,12,16
731,10,A15.wav,S,1381,SH,10H,16,16
732,11,A16.wav,S,1493,SH,10H,15,16
733,12,A19.wav,S,1237,SH,10H,12,16
734,13,A15.wav,SH,1397,SH,10H,16,16
735,14,A12.wav,SH,1189,SH,10H,19,16
736,15,A17.wav,S,1508,SH,10H,14,16
737,16,A14.wav,SH,1045,SH,10H,17,16
738,17,A16.wav,S,1444,SH,10H,15,16
739,18,A15.wav,SH,1261,SH,10H,16,16
740,19,A12.wav,SH,1325,SH,10H,19,16
741,20,A16.wav,SH,3037,SH,10H,15,16
742,21,A17.wav,SH,1957,SH,10H,14,16
743,22,A19.wav,S,1317,SH,10H,12,16
744,23,A14.wav,SH,1229,SH,10H,17,16
745,24,A16.wav,SH,1101,SH,10H,15,16
746,25,A17.wav,SH,1125,SH,10H,14,16
747,26,A15.wav,SH,1165,SH,10H,16,16
748,27,A19.wav,S,1172,SH,10H,12,16
749,28,A14.wav,SH,1124,SH,10H,17,16
750,29,A12.wav,SH,1068,SH,10H,19,16
751,30,A16.wav,SH,1540,SH,10H,15,16
752,31,A14.wav,SH,1043,SH,10H,17,16
753,32,A19.wav,S,1413,SH,10H,12,16
754,33,A17.wav,SH,1045,SH,10H,14,16
755,34,A15.wav,SH,917,SH,10H,16,16
756,35,A12.wav,SH,1093,SH,10H,19,16
757,36,A19.wav,S,1005,SH,10H,12,16
758,37,A15.wav,SH,972,SH,10H,16,16
759,38,A17.wav,SH,1374,SH,10H,14,16
760,39,A12.wav,SH,965,SH,10H,19,16
761,40,A14.wav,SH,1318,SH,10H,17,16
762,41,A16.wav,SH,1013,SH,10H,15,16
763,42,A14.wav,SH,1228,SH,10H,17,16
764,43,A15.wav,S,949,SH,10H,16,16
765,44,A17.wav,S,1724,SH,10H,14,16
766,45,A12.wav,S,853,SH,10H,19,16
767,46,A19.wav,SH,1717,SH,10H,12,16
768,47,A16.wav,SH,1069,SH,10H,15,16
769,48,A17.wav,SH,1853,SH,10H,14,16
770,49,A16.wav,S,1500,SH,10H,15,16
771,50,A14.wav,S,1397,SH,10H,17,16
772,51,A15.wav,SH,1134,SH,10H,16,16
773,52,A12.wav,SH,1204,SH,10H,19,16
774,53,A19.wav,S,1453,SH,10H,12,16
775,54,A15.wav,S,1149,SH,10H,16,16
776,55,A17.wav,S,1556,SH,10H,14,16
777,56,A14.wav,S,1676,SH,10H,17,16
778,57,A12.wav,SH,1029,SH,10H,19,16
779,58,A19.wav,S,1157,SH,10H,12,16
780,59,A16.wav,SH,1148,SH,10H,15,16
781,0,A12.wav,S,2380,S,10M,19,17
782,1,A14.wav,S,1350,S,10M,17,17
783,2,A19.wav,S,1430,S,10M,12,17
784,3,A15.wav,S,1456,S,10M,16,17
785,4,A16.wav,S,1489,S,10M,15,17
786,5,A17.wav,S,1437,S,10M,14,17
787,6,A16.wav,S,1280,S,10M,15,17
788,7,A19.wav,S,1291,S,10M,12,17
789,8,A12.wav,S,1356,S,10M,19,17
790,9,A15.wav,S,1372,S,10M,16,17
791,10,A17.wav,S,1460,S,10M,14,17
792,11,A14.wav,S,1290,S,10M,17,17
793,12,A17.wav,S,1269,S,10M,14,17
794,13,A12.wav,S,1356,S,10M,19,17
795,14,A15.wav,S,1379,S,10M,16,17
796,15,A16.wav,S,1700,S,10M,15,17
797,16,A19.wav,S,1484,S,10M,12,17
798,17,A14.wav,SH,1653,S,10M,17,17
799,18,A14.wav,SH,2230,S,10M,17,17
800,19,A15.wav,SH,1824,S,10M,16,17
801,20,A19.wav,SH,1690,S,10M,12,17
802,21,A17.wav,SH,1304,S,10M,14,17
803,22,A12.wav,SH,1277,S,10M,19,17
804,23,A16.wav,S,2087,S,10M,15,17
805,24,A12.wav,SH,1276,S,10M,19,17
806,25,A14.wav,SH,1213,S,10M,17,17
807,26,A19.wav,SH,1227,S,10M,12,17
808,27,A17.wav,S,1398,S,10M,14,17
809,28,A16.wav,SH,2186,S,10M,15,17
810,29,A15.wav,SH,1247,S,10M,16,17
811,30,A19.wav,SH,1133,S,10M,12,17
812,31,A14.wav,SH,1287,S,10M,17,17
813,32,A15.wav,SH,1319,S,10M,16,17
814,33,A12.wav,S,1373,S,10M,19,17
815,34,A16.wav,S,1600,S,10M,15,17
816,35,A17.wav,SH,1040,S,10M,14,17
817,36,A14.wav,SH,1161,S,10M,17,17
818,37,A16.wav,S,1213,S,10M,15,17
819,38,A12.wav,S,1137,S,10M,19,17
820,39,A17.wav,SH,1061,S,10M,14,17
821,40,A19.wav,SH,1283,S,10M,12,17
822,41,A15.wav,SH,1272,S,10M,16,17
823,42,A17.wav,S,1147,S,10M,14,17
824,43,A16.wav,S,1296,S,10M,15,17
825,44,A19.wav,SH,1103,S,10M,12,17
826,45,A15.wav,SH,1075,S,10M,16,17
827,46,A14.wav,SH,1168,S,10M,17,17
828,47,A12.wav,SH,1336,S,10M,19,17
829,48,A12.wav,SH,1190,S,10M,19,17
830,49,A19.wav,S,1206,S,10M,12,17
831,50,A17.wav,S,1237,S,10M,14,17
832,51,A14.wav,S,1214,S,10M,17,17
833,52,A16.wav,S,1266,S,10M,15,17
834,53,A15.wav,S,1336,S,10M,16,17
835,54,A16.wav,SH,1056,S,10M,15,17
836,55,A15.wav,SH,1278,S,10M,16,17
837,56,A14.wav,S,1110,S,10M,17,17
838,57,A12.wav,SH,1050,S,10M,19,17
839,58,A19.wav,S,1056,S,10M,12,17
840,59,A17.wav,S,1303,S,10M,14,17
841,0,A15.wav,S,6222,S,10M,16,18
842,1,A19.wav,S,1670,S,10M,12,18
843,2,A16.wav,S,1653,S,10M,15,18
844,3,A12.wav,SH,2421,S,10M,19,18
845,4,A17.wav,S,1506,S,10M,14,18
846,5,A14.wav,S,1424,S,10M,17,18
847,6,A14.wav,S,1193,S,10M,17,18
848,7,A17.wav,S,1669,S,10M,14,18
849,8,A12.wav,SH,1563,S,10M,19,18
850,9,A19.wav,S,1297,S,10M,12,18
851,10,A15.wav,S,1277,S,10M,16,18
852,11,A16.wav,S,1385,S,10M,15,18
853,12,A14.wav,S,1251,S,10M,17,18
854,13,A19.wav,S,1201,S,10M,12,18
855,14,A12.wav,SH,1557,S,10M,19,18
856,15,A16.wav,S,1206,S,10M,15,18
857,16,A17.wav,S,1196,S,10M,14,18
858,17,A15.wav,S,1255,S,10M,16,18
859,18,A12.wav,SH,1134,S,10M,19,18
860,19,A14.wav,SH,1153,S,10M,17,18
861,20,A17.wav,SH,2152,S,10M,14,18
862,21,A16.wav,S,1552,S,10M,15,18
863,22,A19.wav,S,1201,S,10M,12,18
864,23,A15.wav,SH,1526,S,10M,16,18
865,24,A15.wav,SH,1214,S,10M,16,18
866,25,A19.wav,S,2445,S,10M,12,18
867,26,A12.wav,SH,1209,S,10M,19,18
868,27,A17.wav,S,1564,S,10M,14,18
869,28,A14.wav,SH,1304,S,10M,17,18
870,29,A16.wav,SH,1322,S,10M,15,18
871,30,A16.wav,SH,1370,S,10M,15,18
872,31,A15.wav,SH,1265,S,10M,16,18
873,32,A17.wav,SH,1874,S,10M,14,18
874,33,A12.wav,SH,1269,S,10M,19,18
875,34,A14.wav,SH,1236,S,10M,17,18
876,35,A19.wav,S,1151,S,10M,12,18
877,36,A12.wav,SH,1180,S,10M,19,18
878,37,A14.wav,SH,1217,S,10M,17,18
879,38,A17.wav,S,1054,S,10M,14,18
880,39,A19.wav,S,1097,S,10M,12,18
881,40,A15.wav,S,1516,S,10M,16,18
882,41,A16.wav,S,1874,S,10M,15,18
883,42,A12.wav,SH,985,S,10M,19,18
884,43,A16.wav,SH,1062,S,10M,15,18
885,44,A17.wav,SH,1174,S,10M,14,18
886,45,A15.wav,SH,1078,S,10M,16,18
887,46,A14.wav,SH,1158,S,10M,17,18
888,47,A19.wav,S,994,S,10M,12,18
889,48,A16.wav,S,1280,S,10M,15,18
890,49,A12.wav,SH,1078,S,10M,19,18
891,50,A14.wav,SH,1082,S,10M,17,18
892,51,A15.wav,SH,1105,S,10M,16,18
893,52,A19.wav,S,1057,S,10M,12,18
894,53,A17.wav,SH,1001,S,10M,14,18
895,54,A14.wav,SH,1034,S,10M,17,18
896,55,A16.wav,SH,1006,S,10M,15,18
897,56,A17.wav,SH,1023,S,10M,14,18
898,57,A15.wav,SH,1011,S,10M,16,18
899,58,A12.wav,SH,1021,S,10M,19,18
900,59,A19.wav,S,1034,S,10M,12,18
901,0,A14.wav,S,6248,S,10M,17,19
902,1,A19.wav,S,5923,S,10M,12,19
903,2,A12.wav,S,2711,S,10M,19,19
904,3,A16.wav,S,1730,S,10M,15,19
905,4,A15.wav,S,1632,S,10M,16,19
906,5,A17.wav,S,1672,S,10M,14,19
907,6,A15.wav,S,1349,S,10M,16,19
908,7,A19.wav,S,1424,S,10M,12,19
909,8,A17.wav,S,1315,S,10M,14,19
910,9,A14.wav,S,1404,S,10M,17,19
911,10,A12.wav,S,1700,S,10M,19,19
912,11,A16.wav,S,1392,S,10M,15,19
913,12,A12.wav,S,1712,S,10M,19,19
914,13,A15.wav,S,1452,S,10M,16,19
915,14,A16.wav,S,1370,S,10M,15,19
916,15,A19.wav,S,1314,S,10M,12,19
917,16,A14.wav,S,1441,S,10M,17,19
918,17,A17.wav,S,1090,S,10M,14,19
919,18,A19.wav,S,1104,S,10M,12,19
920,19,A12.wav,S,1028,S,10M,19,19
921,20,A15.wav,S,1024,S,10M,16,19
922,21,A16.wav,S,1371,S,10M,15,19
923,22,A14.wav,S,1476,S,10M,17,19
924,23,A17.wav,S,1171,S,10M,14,19
925,24,A15.wav,S,1161,S,10M,16,19
926,25,A14.wav,S,1252,S,10M,17,19
927,26,A17.wav,S,1259,S,10M,14,19
928,27,A12.wav,S,1300,S,10M,19,19
929,28,A16.wav,S,1149,S,10M,15,19
930,29,A19.wav,S,1292,S,10M,12,19
931,30,A12.wav,S,1333,S,10M,19,19
932,31,A19.wav,S,1175,S,10M,12,19
933,32,A14.wav,S,1160,S,10M,17,19
934,33,A17.wav,S,1079,S,10M,14,19
935,34,A16.wav,S,1103,S,10M,15,19
936,35,A15.wav,S,1044,S,10M,16,19
937,36,A14.wav,S,1115,S,10M,17,19
938,37,A17.wav,S,1008,S,10M,14,19
939,38,A16.wav,S,1074,S,10M,15,19
940,39,A19.wav,S,1051,S,10M,12,19
941,40,A15.wav,S,1184,S,10M,16,19
942,41,A12.wav,S,1079,S,10M,19,19
943,42,A16.wav,S,1093,S,10M,15,19
944,43,A17.wav,S,1329,S,10M,14,19
945,44,A15.wav,S,1170,S,10M,16,19
946,45,A14.wav,S,1308,S,10M,17,19
947,46,A12.wav,S,1084,S,10M,19,19
948,47,A19.wav,S,1101,S,10M,12,19
949,48,A16.wav,S,1146,S,10M,15,19
950,49,A14.wav,S,1182,S,10M,17,19
951,50,A15.wav,S,1276,S,10M,16,19
952,51,A17.wav,S,1114,S,10M,14,19
953,52,A19.wav,S,1106,S,10M,12,19
954,53,A12.wav,SH,2861,S,10M,19,19
955,54,A16.wav,S,1291,S,10M,15,19
956,55,A14.wav,S,1418,S,10M,17,19
957,56,A19.wav,S,1273,S,10M,12,19
958,57,A12.wav,SH,1561,S,10M,19,19
959,58,A15.wav,S,1571,S,10M,16,19
960,59,A17.wav,S,1185,S,10M,14,19
961,0,A17.wav,S,6804,S,10M,14,20
962,1,A12.wav,S,3186,S,10M,19,20
963,2,A14.wav,S,2538,S,10M,17,20
964,3,A16.wav,S,2131,S,10M,15,20
965,4,A19.wav,S,2186,S,10M,12,20
966,5,A15.wav,S,1530,S,10M,16,20
967,6,A19.wav,S,1252,S,10M,12,20
968,7,A15.wav,S,985,S,10M,16,20
969,8,A17.wav,S,1050,S,10M,14,20
970,9,A14.wav,S,1123,S,10M,17,20
971,10,A16.wav,S,2578,S,10M,15,20
972,11,A12.wav,S,1035,S,10M,19,20
973,12,A12.wav,S,1130,S,10M,19,20
974,13,A14.wav,S,1233,S,10M,17,20
975,14,A16.wav,S,995,S,10M,15,20
976,15,A19.wav,S,1202,S,10M,12,20
977,16,A17.wav,S,1180,S,10M,14,20
978,17,A15.wav,S,1113,S,10M,16,20
979,18,A15.wav,S,954,S,10M,16,20
980,19,A17.wav,S,970,S,10M,14,20
981,20,A14.wav,S,1098,S,10M,17,20
982,21,A19.wav,S,3218,S,10M,12,20
983,22,A12.wav,SH,1522,S,10M,19,20
984,23,A16.wav,S,1211,S,10M,15,20
985,24,A16.wav,S,1147,S,10M,15,20
986,25,A19.wav,S,1081,S,10M,12,20
987,26,A14.wav,S,971,S,10M,17,20
988,27,A17.wav,S,922,S,10M,14,20
989,28,A15.wav,S,1019,S,10M,16,20
990,29,A12.wav,S,1194,S,10M,19,20
991,30,A15.wav,S,1081,S,10M,16,20
992,31,A19.wav,S,1083,S,10M,12,20
993,32,A17.wav,S,1147,S,10M,14,20
994,33,A16.wav,S,1210,S,10M,15,20
995,34,A12.wav,S,1299,S,10M,19,20
996,35,A14.wav,S,1346,S,10M,17,20
997,36,A16.wav,S,1209,S,10M,15,20
998,37,A15.wav,S,1130,S,10M,16,20
999,38,A17.wav,S,1194,S,10M,14,20
1000,39,A12.wav,S,1275,S,10M,19,20
1001,40,A14.wav,S,1305,S,10M,17,20
1002,41,A19.wav,S,1226,S,10M,12,20
1003,42,A14.wav,S,2050,S,10M,17,20
1004,43,A16.wav,S,1498,S,10M,15,20
1005,44,A17.wav,S,2355,S,10M,14,20
1006,45,A15.wav,S,1594,S,10M,16,20
1007,46,A12.wav,S,1130,S,10M,19,20
1008,47,A19.wav,S,948,S,10M,12,20
1009,48,A17.wav,S,1178,S,10M,14,20
1010,49,A14.wav,S,1187,S,10M,17,20
1011,50,A16.wav,S,1227,S,10M,15,20
1012,51,A15.wav,S,1818,S,10M,16,20
1013,52,A12.wav,S,1275,S,10M,19,20
1014,53,A19.wav,S,1785,S,10M,12,20
1015,54,A16.wav,S,5311,S,10M,15,20
1016,55,A12.wav,S,3353,S,10M,19,20
1017,56,A14.wav,S,1265,S,10M,17,20
1018,57,A17.wav,S,1267,S,10M,14,20
1019,58,A15.wav,S,1380,S,10M,16,20
1020,59,A19.wav,S,1235,S,10M,12,20
1021,0,A14.wav,SH,8496,S,10M,17,21
1022,1,A15.wav,S,4491,S,10M,16,21
1023,2,A16.wav,S,2306,S,10M,15,21
1024,3,A19.wav,S,2457,S,10M,12,21
1025,4,A12.wav,SH,2080,S,10M,19,21
1026,5,A17.wav,S,1438,S,10M,14,21
1027,6,A19.wav,S,1221,S,10M,12,21
1028,7,A16.wav,S,1264,S,10M,15,21
1029,8,A14.wav,S,1225,S,10M,17,21
1030,9,A15.wav,SH,1760,S,10M,16,21
1031,10,A12.wav,SH,1835,S,10M,19,21
1032,11,A17.wav,SH,1474,S,10M,14,21
1033,12,A15.wav,SH,1284,S,10M,16,21
1034,13,A16.wav,SH,1286,S,10M,15,21
1035,14,A19.wav,S,1223,S,10M,12,21
1036,15,A12.wav,SH,2737,S,10M,19,21
1037,16,A14.wav,SH,1471,S,10M,17,21
1038,17,A17.wav,S,1120,S,10M,14,21
1039,18,A15.wav,S,1055,S,10M,16,21
1040,19,A14.wav,S,1036,S,10M,17,21
1041,20,A17.wav,S,1251,S,10M,14,21
1042,21,A12.wav,SH,1066,S,10M,19,21
1043,22,A19.wav,S,1041,S,10M,12,21
1044,23,A16.wav,S,1036,S,10M,15,21
1045,24,A15.wav,S,935,S,10M,16,21
1046,25,A14.wav,SH,1356,S,10M,17,21
1047,26,A16.wav,S,1151,S,10M,15,21
1048,27,A12.wav,S,974,S,10M,19,21
1049,28,A17.wav,S,975,S,10M,14,21
1050,29,A19.wav,S,917,S,10M,12,21
1051,30,A16.wav,S,936,S,10M,15,21
1052,31,A15.wav,S,1031,S,10M,16,21
1053,32,A17.wav,S,946,S,10M,14,21
1054,33,A19.wav,S,1023,S,10M,12,21
1055,34,A14.wav,S,1128,S,10M,17,21
1056,35,A12.wav,S,1338,S,10M,19,21
1057,36,A19.wav,S,1019,S,10M,12,21
1058,37,A17.wav,S,997,S,10M,14,21
1059,38,A14.wav,S,1037,S,10M,17,21
1060,39,A12.wav,SH,1043,S,10M,19,21
1061,40,A15.wav,S,1093,S,10M,16,21
1062,41,A16.wav,S,1117,S,10M,15,21
1063,42,A17.wav,S,1075,S,10M,14,21
1064,43,A19.wav,S,969,S,10M,12,21
1065,44,A16.wav,S,921,S,10M,15,21
1066,45,A15.wav,S,1012,S,10M,16,21
1067,46,A12.wav,SH,1019,S,10M,19,21
1068,47,A14.wav,SH,908,S,10M,17,21
1069,48,A15.wav,S,923,S,10M,16,21
1070,49,A12.wav,SH,911,S,10M,19,21
1071,50,A19.wav,S,982,S,10M,12,21
1072,51,A14.wav,SH,977,S,10M,17,21
1073,52,A17.wav,SH,1441,S,10M,14,21
1074,53,A16.wav,S,889,S,10M,15,21
1075,54,A16.wav,SH,7807,S,10M,15,21
1076,55,A15.wav,S,981,S,10M,16,21
1077,56,A14.wav,S,974,S,10M,17,21
1078,57,A12.wav,SH,1079,S,10M,19,21
1079,58,A17.wav,S,915,S,10M,14,21
1080,59,A19.wav,S,835,S,10M,12,21
1081,0,A14.wav,S,4744,S,10M,17,22
1082,1,A17.wav,S,1289,S,10M,14,22
1083,2,A19.wav,S,1042,S,10M,12,22
1084,3,A15.wav,S,1032,S,10M,16,22
1085,4,A16.wav,S,952,S,10M,15,22
1086,5,A12.wav,S,2209,S,10M,19,22
1087,6,A16.wav,S,1337,S,10M,15,22
1088,7,A19.wav,S,1146,S,10M,12,22
1089,8,A17.wav,S,906,S,10M,14,22
1090,9,A14.wav,S,918,S,10M,17,22
1091,10,A12.wav,S,944,S,10M,19,22
1092,11,A15.wav,S,874,S,10M,16,22
1093,12,A15.wav,S,913,S,10M,16,22
1094,13,A14.wav,S,970,S,10M,17,22
1095,14,A19.wav,S,921,S,10M,12,22
1096,15,A17.wav,S,937,S,10M,14,22
1097,16,A12.wav,S,913,S,10M,19,22
1098,17,A16.wav,S,945,S,10M,15,22
1099,18,A16.wav,S,899,S,10M,15,22
1100,19,A14.wav,S,935,S,10M,17,22
1101,20,A12.wav,S,960,S,10M,19,22
1102,21,A17.wav,S,896,S,10M,14,22
1103,22,A19.wav,S,1570,S,10M,12,22
1104,23,A15.wav,S,953,S,10M,16,22
1105,24,A12.wav,S,929,S,10M,19,22
1106,25,A15.wav,S,904,S,10M,16,22
1107,26,A14.wav,S,897,S,10M,17,22
1108,27,A17.wav,S,929,S,10M,14,22
1109,28,A16.wav,S,897,S,10M,15,22
1110,29,A19.wav,S,985,S,10M,12,22
1111,30,A19.wav,S,985,S,10M,12,22
1112,31,A17.wav,S,977,S,10M,14,22
1113,32,A14.wav,S,935,S,10M,17,22
1114,33,A15.wav,S,1000,S,10M,16,22
1115,34,A16.wav,S,937,S,10M,15,22
1116,35,A12.wav,S,971,S,10M,19,22
1117,36,A16.wav,S,944,S,10M,15,22
1118,37,A12.wav,S,881,S,10M,19,22
1119,38,A15.wav,S,848,S,10M,16,22
1120,39,A14.wav,S,1128,S,10M,17,22
1121,40,A19.wav,S,1241,S,10M,12,22
1122,41,A17.wav,S,1041,S,10M,14,22
1123,42,A15.wav,S,1009,S,10M,16,22
1124,43,A16.wav,S,1064,S,10M,15,22
1125,44,A14.wav,S,1002,S,10M,17,22
1126,45,A12.wav,S,1081,S,10M,19,22
1127,46,A17.wav,S,1121,S,10M,14,22
1128,47,A19.wav,S,984,S,10M,12,22
1129,48,A16.wav,S,1017,S,10M,15,22
1130,49,A14.wav,S,1105,S,10M,17,22
1131,50,A19.wav,S,1168,S,10M,12,22
1132,51,A15.wav,SH,1794,S,10M,16,22
1133,52,A17.wav,S,930,S,10M,14,22
1134,53,A12.wav,S,985,S,10M,19,22
1135,54,A19.wav,S,985,S,10M,12,22
1136,55,A17.wav,S,922,S,10M,14,22
1137,56,A16.wav,S,954,S,10M,15,22
1138,57,A12.wav,SH,1186,S,10M,19,22
1139,58,A14.wav,S,969,S,10M,17,22
1140,59,A15.wav,S,953,S,10M,16,22
1141,0,A17.wav,SH,5360,S,10M,14,23
1142,1,A19.wav,SH,1519,S,10M,12,23
1143,2,A12.wav,S,2078,S,10M,19,23
1144,3,A16.wav,S,1366,S,10M,15,23
1145,4,A15.wav,S,1369,S,10M,16,23
1146,5,A14.wav,S,1094,S,10M,17,23
1147,6,A19.wav,S,1008,S,10M,12,23
1148,7,A17.wav,S,1281,S,10M,14,23
1149,8,A15.wav,S,1224,S,10M,16,23
1150,9,A14.wav,S,1277,S,10M,17,23
1151,10,A12.wav,S,1415,S,10M,19,23
1152,11,A16.wav,S,1473,S,10M,15,23
1153,12,A16.wav,S,1240,S,10M,15,23
1154,13,A19.wav,S,1271,S,10M,12,23
1155,14,A15.wav,S,1207,S,10M,16,23
1156,15,A12.wav,S,1196,S,10M,19,23
1157,16,A17.wav,S,1249,S,10M,14,23
1158,17,A14.wav,S,1207,S,10M,17,23
1159,18,A15.wav,S,1111,S,10M,16,23
1160,19,A17.wav,S,1003,S,10M,14,23
1161,20,A12.wav,S,1037,S,10M,19,23
1162,21,A14.wav,S,1206,S,10M,17,23
1163,22,A16.wav,S,1290,S,10M,15,23
1164,23,A19.wav,S,1263,S,10M,12,23
1165,24,A19.wav,S,1248,S,10M,12,23
1166,25,A12.wav,S,1198,S,10M,19,23
1167,26,A16.wav,S,1218,S,10M,15,23
1168,27,A14.wav,S,1201,S,10M,17,23
1169,28,A15.wav,S,1139,S,10M,16,23
1170,29,A17.wav,S,1178,S,10M,14,23
1171,30,A14.wav,S,1316,S,10M,17,23
1172,31,A19.wav,S,1284,S,10M,12,23
1173,32,A16.wav,S,1263,S,10M,15,23
1174,33,A12.wav,S,1231,S,10M,19,23
1175,34,A17.wav,S,1220,S,10M,14,23
1176,35,A15.wav,S,1298,S,10M,16,23
1177,36,A12.wav,S,1248,S,10M,19,23
1178,37,A17.wav,S,1350,S,10M,14,23
1179,38,A14.wav,S,1237,S,10M,17,23
1180,39,A15.wav,S,1236,S,10M,16,23
1181,40,A19.wav,S,1136,S,10M,12,23
1182,41,A16.wav,S,1201,S,10M,15,23
1183,42,A17.wav,S,1390,S,10M,14,23
1184,43,A19.wav,S,1264,S,10M,12,23
1185,44,A15.wav,S,1167,S,10M,16,23
1186,45,A12.wav,S,1266,S,10M,19,23
1187,46,A14.wav,S,1142,S,10M,17,23
1188,47,A16.wav,S,1078,S,10M,15,23
1189,48,A12.wav,S,1277,S,10M,19,23
1190,49,A19.wav,S,1245,S,10M,12,23
1191,50,A15.wav,S,1294,S,10M,16,23
1192,51,A17.wav,S,1271,S,10M,14,23
1193,52,A14.wav,S,1275,S,10M,17,23
1194,53,A16.wav,S,1244,S,10M,15,23
1195,54,A15.wav,S,1229,S,10M,16,23
1196,55,A19.wav,S,1183,S,10M,12,23
1197,56,A14.wav,S,1257,S,10M,17,23
1198,57,A12.wav,S,1108,S,10M,19,23
1199,58,A17.wav,S,1282,S,10M,14,23
1200,59,A16.wav,S,1335,S,10M,15,23
1201,0,A16.wav,S,14436,S,10M,15,24
1202,1,A15.wav,S,3747,S,10M,16,24
1203,2,A12.wav,S,3553,S,10M,19,24
1204,3,A17.wav,S,2237,S,10M,14,24
1205,4,A19.wav,S,2612,S,10M,12,24
1206,5,A14.wav,S,1775,S,10M,17,24
1207,6,A15.wav,S,2343,S,10M,16,24
1208,7,A16.wav,S,2163,S,10M,15,24
1209,8,A12.wav,S,1977,S,10M,19,24
1210,9,A17.wav,S,2726,S,10M,14,24
1211,10,A19.wav,S,1679,S,10M,12,24
1212,11,A14.wav,S,1682,S,10M,17,24
1213,12,A15.wav,S,1405,S,10M,16,24
1214,13,A16.wav,S,1527,S,10M,15,24
1215,14,A12.wav,S,1372,S,10M,19,24
1216,15,A14.wav,S,1247,S,10M,17,24
1217,16,A19.wav,S,1266,S,10M,12,24
1218,17,A17.wav,S,1287,S,10M,14,24
1219,18,A12.wav,S,1318,S,10M,19,24
1220,19,A16.wav,S,1434,S,10M,15,24
1221,20,A14.wav,S,1392,S,10M,17,24
1222,21,A15.wav,S,1335,S,10M,16,24
1223,22,A19.wav,S,1394,S,10M,12,24
1224,23,A17.wav,S,1406,S,10M,14,24
1225,24,A15.wav,S,1453,S,10M,16,24
1226,25,A14.wav,S,1487,S,10M,17,24
1227,26,A12.wav,S,1340,S,10M,19,24
1228,27,A17.wav,S,1547,S,10M,14,24
1229,28,A16.wav,S,1479,S,10M,15,24
1230,29,A19.wav,S,1335,S,10M,12,24
1231,30,A12.wav,S,1660,S,10M,19,24
1232,31,A17.wav,S,1370,S,10M,14,24
1233,32,A15.wav,S,1512,S,10M,16,24
1234,33,A16.wav,S,1352,S,10M,15,24
1235,34,A19.wav,S,1246,S,10M,12,24
1236,35,A14.wav,S,1215,S,10M,17,24
1237,36,A19.wav,S,1257,S,10M,12,24
1238,37,A15.wav,S,1281,S,10M,16,24
1239,38,A14.wav,SH,3524,S,10M,17,24
1240,39,A12.wav,SH,1322,S,10M,19,24
1241,40,A17.wav,S,1287,S,10M,14,24
1242,41,A16.wav,S,1076,S,10M,15,24
1243,42,A12.wav,SH,1306,S,10M,19,24
1244,43,A19.wav,S,1454,S,10M,12,24
1245,44,A16.wav,S,1147,S,10M,15,24
1246,45,A14.wav,S,1323,S,10M,17,24
1247,46,A15.wav,SH,1245,S,10M,16,24
1248,47,A17.wav,S,1108,S,10M,14,24
1249,48,A12.wav,S,1170,S,10M,19,24
1250,49,A19.wav,S,1178,S,10M,12,24
1251,50,A17.wav,S,1126,S,10M,14,24
1252,51,A14.wav,SH,1421,S,10M,17,24
1253,52,A15.wav,S,1163,S,10M,16,24
1254,53,A16.wav,S,1167,S,10M,15,24
1255,54,A15.wav,S,1147,S,10M,16,24
1256,55,A14.wav,S,1041,S,10M,17,24
1257,56,A16.wav,S,1159,S,10M,15,24
1258,57,A17.wav,S,1058,S,10M,14,24
1259,58,A19.wav,S,1143,S,10M,12,24
1260,59,A12.wav,S,1082,S,10M,19,24
1261,0,A19.wav,S,8256,SH,10M,12,25
1262,1,A17.wav,S,4644,SH,10M,14,25
1263,2,A14.wav,S,5709,SH,10M,17,25
1264,3,A12.wav,S,3227,SH,10M,19,25
1265,4,A15.wav,S,1906,SH,10M,16,25
1266,5,A16.wav,S,2495,SH,10M,15,25
1267,6,A14.wav,S,1815,SH,10M,17,25
1268,7,A19.wav,S,1679,SH,10M,12,25
1269,8,A15.wav,S,1449,SH,10M,16,25
1270,9,A16.wav,S,1547,SH,10M,15,25
1271,10,A17.wav,S,1527,SH,10M,14,25
1272,11,A12.wav,S,1478,SH,10M,19,25
1273,12,A12.wav,S,1419,SH,10M,19,25
1274,13,A15.wav,S,1376,SH,10M,16,25
1275,14,A14.wav,S,1393,SH,10M,17,25
1276,15,A17.wav,S,1504,SH,10M,14,25
1277,16,A16.wav,S,1447,SH,10M,15,25
1278,17,A19.wav,S,1429,SH,10M,12,25
1279,18,A19.wav,S,1412,SH,10M,12,25
1280,19,A16.wav,S,1548,SH,10M,15,25
1281,20,A17.wav,S,1397,SH,10M,14,25
1282,21,A14.wav,S,1219,SH,10M,17,25
1283,22,A12.wav,S,1282,SH,10M,19,25
1284,23,A15.wav,S,1278,SH,10M,16,25
1285,24,A17.wav,S,1309,SH,10M,14,25
1286,25,A15.wav,S,1373,SH,10M,16,25
1287,26,A19.wav,S,1331,SH,10M,12,25
1288,27,A12.wav,S,1272,SH,10M,19,25
1289,28,A16.wav,S,1305,SH,10M,15,25
1290,29,A14.wav,S,1449,SH,10M,17,25
1291,30,A17.wav,S,1359,SH,10M,14,25
1292,31,A16.wav,S,1318,SH,10M,15,25
1293,32,A19.wav,S,1346,SH,10M,12,25
1294,33,A15.wav,S,1314,SH,10M,16,25
1295,34,A14.wav,S,1397,SH,10M,17,25
1296,35,A12.wav,S,1289,SH,10M,19,25
1297,36,A17.wav,S,1352,SH,10M,14,25
1298,37,A15.wav,S,1379,SH,10M,16,25
1299,38,A12.wav,S,1342,SH,10M,19,25
1300,39,A16.wav,S,1402,SH,10M,15,25
1301,40,A19.wav,S,1378,SH,10M,12,25
1302,41,A14.wav,S,1385,SH,10M,17,25
1303,42,A19.wav,S,1277,SH,10M,12,25
1304,43,A17.wav,S,1222,SH,10M,14,25
1305,44,A14.wav,S,1222,SH,10M,17,25
1306,45,A15.wav,S,1333,SH,10M,16,25
1307,46,A12.wav,S,1287,SH,10M,19,25
1308,47,A16.wav,S,1277,SH,10M,15,25
1309,48,A14.wav,S,1203,SH,10M,17,25
1310,49,A16.wav,S,1368,SH,10M,15,25
1311,50,A15.wav,S,1324,SH,10M,16,25
1312,51,A17.wav,S,1285,SH,10M,14,25
1313,52,A19.wav,S,1379,SH,10M,12,25
1314,53,A12.wav,S,1370,SH,10M,19,25
1315,54,A17.wav,S,1271,SH,10M,14,25
1316,55,A15.wav,S,1295,SH,10M,16,25
1317,56,A12.wav,S,1262,SH,10M,19,25
1318,57,A19.wav,S,1137,SH,10M,12,25
1319,58,A16.wav,S,1247,SH,10M,15,25
1320,59,A14.wav,S,1104,SH,10M,17,25
1321,0,A19.wav,S,3997,SH,10M,12,27
1322,1,A12.wav,S,5574,SH,10M,19,27
1323,2,A16.wav,S,2293,SH,10M,15,27
1324,3,A17.wav,S,1650,SH,10M,14,27
1325,4,A14.wav,S,3005,SH,10M,17,27
1326,5,A15.wav,SH,1412,SH,10M,16,27
1327,6,A14.wav,SH,1262,SH,10M,17,27
1328,7,A12.wav,SH,1267,SH,10M,19,27
1329,8,A17.wav,S,1539,SH,10M,14,27
1330,9,A16.wav,S,1312,SH,10M,15,27
1331,10,A15.wav,SH,1514,SH,10M,16,27
1332,11,A19.wav,S,1175,SH,10M,12,27
1333,12,A12.wav,SH,1248,SH,10M,19,27
1334,13,A16.wav,SH,1306,SH,10M,15,27
1335,14,A14.wav,SH,1442,SH,10M,17,27
1336,15,A15.wav,SH,1419,SH,10M,16,27
1337,16,A19.wav,S,1449,SH,10M,12,27
1338,17,A17.wav,SH,1923,SH,10M,14,27
1339,18,A15.wav,SH,1288,SH,10M,16,27
1340,19,A12.wav,SH,1297,SH,10M,19,27
1341,20,A19.wav,S,1193,SH,10M,12,27
1342,21,A17.wav,S,1745,SH,10M,14,27
1343,22,A14.wav,SH,1307,SH,10M,17,27
1344,23,A16.wav,SH,1178,SH,10M,15,27
1345,24,A14.wav,SH,1313,SH,10M,17,27
1346,25,A16.wav,SH,1336,SH,10M,15,27
1347,26,A17.wav,S,1307,SH,10M,14,27
1348,27,A12.wav,SH,1272,SH,10M,19,27
1349,28,A15.wav,S,1274,SH,10M,16,27
1350,29,A19.wav,S,1162,SH,10M,12,27
1351,30,A12.wav,SH,1272,SH,10M,19,27
1352,31,A15.wav,SH,1115,SH,10M,16,27
1353,32,A17.wav,S,2320,SH,10M,14,27
1354,33,A16.wav,S,1319,SH,10M,15,27
1355,34,A14.wav,SH,1200,SH,10M,17,27
1356,35,A19.wav,S,1316,SH,10M,12,27
1357,36,A15.wav,SH,1350,SH,10M,16,27
1358,37,A16.wav,S,1489,SH,10M,15,27
1359,38,A19.wav,S,1226,SH,10M,12,27
1360,39,A12.wav,SH,1268,SH,10M,19,27
1361,40,A17.wav,S,1374,SH,10M,14,27
1362,41,A14.wav,SH,1217,SH,10M,17,27
1363,42,A14.wav,SH,1275,SH,10M,17,27
1364,43,A19.wav,S,1257,SH,10M,12,27
1365,44,A16.wav,SH,1248,SH,10M,15,27
1366,45,A12.wav,SH,1301,SH,10M,19,27
1367,46,A15.wav,SH,2359,SH,10M,16,27
1368,47,A17.wav,SH,1181,SH,10M,14,27
1369,48,A17.wav,S,1311,SH,10M,14,27
1370,49,A15.wav,SH,2162,SH,10M,16,27
1371,50,A16.wav,S,1305,SH,10M,15,27
1372,51,A12.wav,SH,1292,SH,10M,19,27
1373,52,A14.wav,S,1096,SH,10M,17,27
1374,53,A19.wav,S,1131,SH,10M,12,27
1375,54,A17.wav,S,1315,SH,10M,14,27
1376,55,A15.wav,S,1548,SH,10M,16,27
1377,56,A16.wav,S,1235,SH,10M,15,27
1378,57,A12.wav,SH,1259,SH,10M,19,27
1379,58,A19.wav,S,1147,SH,10M,12,27
1380,59,A14.wav,SH,1269,SH,10M,17,27
1381,0,A19.wav,SH,9505,SH,10M,12,28
1382,1,A16.wav,S,2051,SH,10M,15,28
1383,2,A15.wav,S,1877,SH,10M,16,28
1384,3,A14.wav,S,4716,SH,10M,17,28
1385,4,A12.wav,S,2812,SH,10M,19,28
1386,5,A17.wav,S,2958,SH,10M,14,28
1387,6,A12.wav,S,2070,SH,10M,19,28
1388,7,A16.wav,S,2157,SH,10M,15,28
1389,8,A19.wav,S,2141,SH,10M,12,28
1390,9,A14.wav,SH,1765,SH,10M,17,28
1391,10,A15.wav,S,1429,SH,10M,16,28
1392,11,A17.wav,S,1220,SH,10M,14,28
1393,12,A19.wav,S,1229,SH,10M,12,28
1394,13,A15.wav,SH,2197,SH,10M,16,28
1395,14,A12.wav,S,1565,SH,10M,19,28
1396,15,A14.wav,S,1404,SH,10M,17,28
1397,16,A17.wav,S,1516,SH,10M,14,28
1398,17,A16.wav,S,2332,SH,10M,15,28
1399,18,A17.wav,S,2045,SH,10M,14,28
1400,19,A14.wav,S,1398,SH,10M,17,28
1401,20,A19.wav,SH,1572,SH,10M,12,28
1402,21,A15.wav,SH,1396,SH,10M,16,28
1403,22,A12.wav,SH,1173,SH,10M,19,28
1404,23,A16.wav,S,1156,SH,10M,15,28
1405,24,A12.wav,SH,1187,SH,10M,19,28
1406,25,A15.wav,S,1349,SH,10M,16,28
1407,26,A16.wav,S,1125,SH,10M,15,28
1408,27,A17.wav,S,1100,SH,10M,14,28
1409,28,A14.wav,S,1709,SH,10M,17,28
1410,29,A19.wav,S,1245,SH,10M,12,28
1411,30,A12.wav,SH,1251,SH,10M,19,28
1412,31,A15.wav,SH,1197,SH,10M,16,28
1413,32,A17.wav,S,1109,SH,10M,14,28
1414,33,A16.wav,S,1644,SH,10M,15,28
1415,34,A14.wav,S,1301,SH,10M,17,28
1416,35,A19.wav,S,1483,SH,10M,12,28
1417,36,A15.wav,S,4492,SH,10M,16,28
1418,37,A12.wav,SH,1436,SH,10M,19,28
1419,38,A14.wav,SH,1725,SH,10M,17,28
1420,39,A16.wav,S,1556,SH,10M,15,28
1421,40,A17.wav,S,1140,SH,10M,14,28
1422,41,A19.wav,S,1133,SH,10M,12,28
1423,42,A12.wav,S,1324,SH,10M,19,28
1424,43,A19.wav,S,889,SH,10M,12,28
1425,44,A16.wav,S,1133,SH,10M,15,28
1426,45,A17.wav,S,1092,SH,10M,14,28
1427,46,A15.wav,S,1205,SH,10M,16,28
1428,47,A14.wav,S,1333,SH,10M,17,28
1429,48,A14.wav,S,1053,SH,10M,17,28
1430,49,A19.wav,S,1149,SH,10M,12,28
1431,50,A17.wav,S,2354,SH,10M,14,28
1432,51,A16.wav,S,1313,SH,10M,15,28
1433,52,A15.wav,S,1228,SH,10M,16,28
1434,53,A12.wav,SH,1246,SH,10M,19,28
1435,54,A19.wav,SH,1861,SH,10M,12,28
1436,55,A17.wav,S,1355,SH,10M,14,28
1437,56,A16.wav,S,1133,SH,10M,15,28
1438,57,A14.wav,SH,1686,SH,10M,17,28
1439,58,A12.wav,SH,1222,SH,10M,19,28
1440,59,A15.wav,S,1209,SH,10M,16,28
1441,0,A15.wav,SH,4146,SH,10M,16,29
1442,1,A12.wav,SH,2370,SH,10M,19,29
1443,2,A17.wav,SH,1647,SH,10M,14,29
1444,3,A14.wav,SH,1514,SH,10M,17,29
1445,4,A16.wav,SH,1578,SH,10M,15,29
1446,5,A19.wav,S,1835,SH,10M,12,29
1447,6,A19.wav,S,1190,SH,10M,12,29
1448,7,A16.wav,S,1319,SH,10M,15,29
1449,8,A15.wav,SH,1091,SH,10M,16,29
1450,9,A17.wav,S,1103,SH,10M,14,29
1451,10,A14.wav,SH,1308,SH,10M,17,29
1452,11,A12.wav,S,1385,SH,10M,19,29
1453,12,A14.wav,S,1375,SH,10M,17,29
1454,13,A16.wav,S,1872,SH,10M,15,29
1455,14,A19.wav,S,1329,SH,10M,12,29
1456,15,A12.wav,SH,1173,SH,10M,19,29
1457,16,A15.wav,S,1566,SH,10M,16,29
1458,17,A17.wav,S,1919,SH,10M,14,29
1459,18,A17.wav,S,1834,SH,10M,14,29
1460,19,A19.wav,S,1500,SH,10M,12,29
1461,20,A12.wav,SH,1449,SH,10M,19,29
1462,21,A16.wav,S,1167,SH,10M,15,29
1463,22,A15.wav,S,1184,SH,10M,16,29
1464,23,A14.wav,S,1050,SH,10M,17,29
1465,24,A15.wav,S,1089,SH,10M,16,29
1466,25,A14.wav,S,1187,SH,10M,17,29
1467,26,A12.wav,SH,1206,SH,10M,19,29
1468,27,A17.wav,S,1031,SH,10M,14,29
1469,28,A16.wav,S,1441,SH,10M,15,29
1470,29,A19.wav,S,1210,SH,10M,12,29
1471,30,A12.wav,SH,1426,SH,10M,19,29
1472,31,A15.wav,SH,1103,SH,10M,16,29
1473,32,A16.wav,S,1013,SH,10M,15,29
1474,33,A14.wav,S,1064,SH,10M,17,29
1475,34,A19.wav,S,1310,SH,10M,12,29
1476,35,A17.wav,S,1143,SH,10M,14,29
1477,36,A19.wav,S,1089,SH,10M,12,29
1478,37,A16.wav,S,1036,SH,10M,15,29
1479,38,A17.wav,S,1005,SH,10M,14,29
1480,39,A12.wav,SH,1023,SH,10M,19,29
1481,40,A14.wav,S,1015,SH,10M,17,29
1482,41,A15.wav,S,953,SH,10M,16,29
1483,42,A12.wav,S,1122,SH,10M,19,29
1484,43,A16.wav,S,993,SH,10M,15,29
1485,44,A17.wav,S,1036,SH,10M,14,29
1486,45,A15.wav,S,1023,SH,10M,16,29
1487,46,A14.wav,S,947,SH,10M,17,29
1488,47,A19.wav,S,983,SH,10M,12,29
1489,48,A14.wav,S,982,SH,10M,17,29
1490,49,A19.wav,S,1054,SH,10M,12,29
1491,50,A16.wav,S,1027,SH,10M,15,29
1492,51,A12.wav,SH,904,SH,10M,19,29
1493,52,A17.wav,S,983,SH,10M,14,29
1494,53,A15.wav,S,1000,SH,10M,16,29
1495,54,A15.wav,S,1000,SH,10M,16,29
1496,55,A12.wav,S,1127,SH,10M,19,29
1497,56,A17.wav,S,1013,SH,10M,14,29
1498,57,A19.wav,S,1061,SH,10M,12,29
1499,58,A16.wav,S,1056,SH,10M,15,29
1500,59,A14.wav,S,1053,SH,10M,17,29
1501,0,A14.wav,S,12913,SH,10M,17,30
1502,1,A15.wav,S,3454,SH,10M,16,30
1503,2,A12.wav,S,8421,SH,10M,19,30
1504,3,A16.wav,S,2001,SH,10M,15,30
1505,4,A17.wav,S,1766,SH,10M,14,30
1506,5,A19.wav,S,2031,SH,10M,12,30
1507,6,A15.wav,S,1483,SH,10M,16,30
1508,7,A12.wav,S,1447,SH,10M,19,30
1509,8,A16.wav,S,1335,SH,10M,15,30
1510,9,A17.wav,S,1412,SH,10M,14,30
1511,10,A14.wav,S,1332,SH,10M,17,30
1512,11,A19.wav,S,1452,SH,10M,12,30
1513,12,A14.wav,S,992,SH,10M,17,30
1514,13,A17.wav,S,923,SH,10M,14,30
1515,14,A12.wav,S,1330,SH,10M,19,30
1516,15,A16.wav,S,1090,SH,10M,15,30
1517,16,A15.wav,S,925,SH,10M,16,30
1518,17,A19.wav,S,1167,SH,10M,12,30
1519,18,A14.wav,S,1200,SH,10M,17,30
1520,19,A16.wav,S,991,SH,10M,15,30
1521,20,A15.wav,S,923,SH,10M,16,30
1522,21,A12.wav,S,1160,SH,10M,19,30
1523,22,A19.wav,S,1278,SH,10M,12,30
1524,23,A17.wav,S,1183,SH,10M,14,30
1525,24,A15.wav,S,1964,SH,10M,16,30
1526,25,A14.wav,S,1271,SH,10M,17,30
1527,26,A17.wav,S,1050,SH,10M,14,30
1528,27,A19.wav,S,1183,SH,10M,12,30
1529,28,A12.wav,S,1324,SH,10M,19,30
1530,29,A16.wav,S,1238,SH,10M,15,30
1531,30,A16.wav,S,1155,SH,10M,15,30
1532,31,A17.wav,S,866,SH,10M,14,30
1533,32,A19.wav,S,2566,SH,10M,12,30
1534,33,A14.wav,S,1343,SH,10M,17,30
1535,34,A15.wav,S,1375,SH,10M,16,30
1536,35,A12.wav,S,996,SH,10M,19,30
1537,36,A16.wav,S,1045,SH,10M,15,30
1538,37,A12.wav,S,953,SH,10M,19,30
1539,38,A15.wav,S,1039,SH,10M,16,30
1540,39,A19.wav,S,877,SH,10M,12,30
1541,40,A17.wav,S,948,SH,10M,14,30
1542,41,A14.wav,S,871,SH,10M,17,30
1543,42,A19.wav,S,1023,SH,10M,12,30
1544,43,A16.wav,S,1040,SH,10M,15,30
1545,44,A17.wav,S,990,SH,10M,14,30
1546,45,A12.wav,S,975,SH,10M,19,30
1547,46,A15.wav,S,1027,SH,10M,16,30
1548,47,A14.wav,S,1066,SH,10M,17,30
1549,48,A12.wav,S,1151,SH,10M,19,30
1550,49,A14.wav,S,1074,SH,10M,17,30
1551,50,A19.wav,S,1005,SH,10M,12,30
1552,51,A17.wav,S,1055,SH,10M,14,30
1553,52,A15.wav,S,1204,SH,10M,16,30
1554,53,A16.wav,S,1092,SH,10M,15,30
1555,54,A17.wav,S,957,SH,10M,14,30
1556,55,A15.wav,S,1054,SH,10M,16,30
1557,56,A19.wav,S,1253,SH,10M,12,30
1558,57,A12.wav,S,1333,SH,10M,19,30
1559,58,A16.wav,S,3002,SH,10M,15,30
1560,59,A14.wav,S,1014,SH,10M,17,30
1561,0,A17.wav,SH,4318,SH,10M,14,32
1562,1,A19.wav,S,4133,SH,10M,12,32
1563,2,A15.wav,S,3128,SH,10M,16,32
1564,3,A16.wav,S,1205,SH,10M,15,32
1565,4,A14.wav,S,1199,SH,10M,17,32
1566,5,A12.wav,S,1174,SH,10M,19,32
1567,6,A16.wav,S,5293,SH,10M,15,32
1568,7,A12.wav,S,1072,SH,10M,19,32
1569,8,A15.wav,S,965,SH,10M,16,32
1570,9,A19.wav,S,4824,SH,10M,12,32
1571,10,A14.wav,S,1356,SH,10M,17,32
1572,11,A17.wav,S,1210,SH,10M,14,32
1573,12,A17.wav,S,1075,SH,10M,14,32
1574,13,A15.wav,S,1272,SH,10M,16,32
1575,14,A12.wav,S,1314,SH,10M,19,32
1576,15,A14.wav,SH,1119,SH,10M,17,32
1577,16,A16.wav,S,1460,SH,10M,15,32
1578,17,A19.wav,SH,931,SH,10M,12,32
1579,18,A12.wav,S,1188,SH,10M,19,32
1580,19,A19.wav,S,1006,SH,10M,12,32
1581,20,A17.wav,S,961,SH,10M,14,32
1582,21,A15.wav,S,963,SH,10M,16,32
1583,22,A16.wav,S,3703,SH,10M,15,32
1584,23,A14.wav,S,927,SH,10M,17,32
1585,24,A14.wav,S,2608,SH,10M,17,32
1586,25,A12.wav,S,1692,SH,10M,19,32
1587,26,A15.wav,S,3223,SH,10M,16,32
1588,27,A17.wav,S,3061,SH,10M,14,32
1589,28,A16.wav,S,2968,SH,10M,15,32
1590,29,A19.wav,S,2365,SH,10M,12,32
1591,30,A14.wav,S,2452,SH,10M,17,32
1592,31,A15.wav,S,2301,SH,10M,16,32
1593,32,A16.wav,S,3586,SH,10M,15,32
1594,33,A17.wav,SH,2968,SH,10M,14,32
1595,34,A19.wav,SH,2269,SH,10M,12,32
1596,35,A12.wav,SH,3074,SH,10M,19,32
1597,36,A15.wav,SH,1115,SH,10M,16,32
1598,37,A14.wav,S,1505,SH,10M,17,32
1599,38,A19.wav,S,2146,SH,10M,12,32
1600,39,A12.wav,S,2498,SH,10M,19,32
1601,40,A17.wav,S,2717,SH,10M,14,32
1602,41,A16.wav,S,1212,SH,10M,15,32
1603,42,A17.wav,S,2053,SH,10M,14,32
1604,43,A12.wav,S,1028,SH,10M,19,32
1605,44,A15.wav,S,2040,SH,10M,16,32
1606,45,A16.wav,S,2150,SH,10M,15,32
1607,46,A14.wav,S,1624,SH,10M,17,32
1608,47,A19.wav,S,971,SH,10M,12,32
1609,48,A19.wav,SH,847,SH,10M,12,32
1610,49,A14.wav,SH,2364,SH,10M,17,32
1611,50,A12.wav,SH,2419,SH,10M,19,32
1612,51,A16.wav,SH,2363,SH,10M,15,32
1613,52,A17.wav,SH,1153,SH,10M,14,32
1614,53,A15.wav,SH,899,SH,10M,16,32
1615,54,A14.wav,SH,1418,SH,10M,17,32
1616,55,A19.wav,SH,969,SH,10M,12,32
1617,56,A16.wav,SH,2172,SH,10M,15,32
1618,57,A17.wav,SH,2046,SH,10M,14,32
1619,58,A15.wav,SH,1499,SH,10M,16,32
1620,59,A12.wav,SH,2962,SH,10M,19,32
1621,0,A19.wav,S,3643,S,10H,12,49
1622,1,A17.wav,S,1530,S,10H,14,49
1623,2,A12.wav,S,1393,S,10H,19,49
1624,3,A16.wav,S,1370,S,10H,15,49
1625,4,A14.wav,S,1793,S,10H,17,49
1626,5,A15.wav,S,1752,S,10H,16,49
1627,6,A16.wav,S,1608,S,10H,15,49
1628,7,A12.wav,S,1209,S,10H,19,49
1629,8,A17.wav,S,1130,S,10H,14,49
1630,9,A19.wav,S,1350,S,10H,12,49
1631,10,A15.wav,S,1534,S,10H,16,49
1632,11,A14.wav,S,1310,S,10H,17,49
1633,12,A14.wav,S,1348,S,10H,17,49
1634,13,A16.wav,S,1358,S,10H,15,49
1635,14,A17.wav,S,1511,S,10H,14,49
1636,15,A15.wav,S,1409,S,10H,16,49
1637,16,A12.wav,S,1431,S,10H,19,49
1638,17,A19.wav,S,1349,S,10H,12,49
1639,18,A17.wav,S,1250,S,10H,14,49
1640,19,A14.wav,S,1089,S,10H,17,49
1641,20,A15.wav,S,1250,S,10H,16,49
1642,21,A19.wav,S,1327,S,10H,12,49
1643,22,A16.wav,S,1488,S,10H,15,49
1644,23,A12.wav,SH,1408,S,10H,19,49
1645,24,A12.wav,S,1526,S,10H,19,49
1646,25,A19.wav,S,1350,S,10H,12,49
1647,26,A14.wav,SH,1347,S,10H,17,49
1648,27,A16.wav,S,1408,S,10H,15,49
1649,28,A17.wav,SH,1887,S,10H,14,49
1650,29,A15.wav,S,1400,S,10H,16,49
1651,30,A19.wav,S,1528,S,10H,12,49
1652,31,A16.wav,S,1549,S,10H,15,49
1653,32,A15.wav,S,1327,S,10H,16,49
1654,33,A14.wav,S,1469,S,10H,17,49
1655,34,A17.wav,S,1747,S,10H,14,49
1656,35,A12.wav,S,1467,S,10H,19,49
1657,36,A17.wav,SH,1368,S,10H,14,49
1658,37,A19.wav,S,1309,S,10H,12,49
1659,38,A15.wav,SH,1688,S,10H,16,49
1660,39,A14.wav,S,1328,S,10H,17,49
1661,40,A16.wav,S,1230,S,10H,15,49
1662,41,A12.wav,SH,1268,S,10H,19,49
1663,42,A15.wav,SH,1337,S,10H,16,49
1664,43,A17.wav,SH,1411,S,10H,14,49
1665,44,A16.wav,SH,1286,S,10H,15,49
1666,45,A14.wav,S,1239,S,10H,17,49
1667,46,A19.wav,S,1351,S,10H,12,49
1668,47,A12.wav,SH,1348,S,10H,19,49
1669,48,A17.wav,S,1350,S,10H,14,49
1670,49,A15.wav,SH,1008,S,10H,16,49
1671,50,A14.wav,S,1209,S,10H,17,49
1672,51,A12.wav,SH,1103,S,10H,19,49
1673,52,A19.wav,S,1187,S,10H,12,49
1674,53,A16.wav,SH,1007,S,10H,15,49
1675,54,A12.wav,S,1347,S,10H,19,49
1676,55,A16.wav,SH,1088,S,10H,15,49
1677,56,A14.wav,S,1167,S,10H,17,49
1678,57,A15.wav,S,1188,S,10H,16,49
1679,58,A17.wav,S,1311,S,10H,14,49
1680,59,A19.wav,S,1307,S,10H,12,49
1681,0,A14.wav,S,5230,S,10H,17,50
1682,1,A17.wav,S,3651,S,10H,14,50
1683,2,A19.wav,S,3752,S,10H,12,50
1684,3,A16.wav,S,3607,S,10H,15,50
1685,4,A15.wav,S,3499,S,10H,16,50
1686,5,A12.wav,S,7952,S,10H,19,50
1687,6,A19.wav,SH,3319,S,10H,12,50
1688,7,A12.wav,S,1846,S,10H,19,50
1689,8,A17.wav,S,1801,S,10H,14,50
1690,9,A14.wav,S,3313,S,10H,17,50
1691,10,A16.wav,S,2171,S,10H,15,50
1692,11,A15.wav,S,1948,S,10H,16,50
1693,12,A16.wav,S,2049,S,10H,15,50
1694,13,A12.wav,S,1603,S,10H,19,50
1695,14,A15.wav,S,2297,S,10H,16,50
1696,15,A17.wav,S,5945,S,10H,14,50
1697,16,A14.wav,S,2045,S,10H,17,50
1698,17,A19.wav,S,1494,S,10H,12,50
1699,18,A19.wav,S,1289,S,10H,12,50
1700,19,A17.wav,S,1443,S,10H,14,50
1701,20,A12.wav,S,1418,S,10H,19,50
1702,21,A15.wav,S,1250,S,10H,16,50
1703,22,A14.wav,S,1210,S,10H,17,50
1704,23,A16.wav,S,1228,S,10H,15,50
1705,24,A12.wav,S,1211,S,10H,19,50
1706,25,A19.wav,S,1245,S,10H,12,50
1707,26,A15.wav,S,1330,S,10H,16,50
1708,27,A14.wav,S,1440,S,10H,17,50
1709,28,A16.wav,S,1048,S,10H,15,50
1710,29,A17.wav,S,2949,S,10H,14,50
1711,30,A12.wav,S,1716,S,10H,19,50
1712,31,A17.wav,S,2075,S,10H,14,50
1713,32,A19.wav,S,1327,S,10H,12,50
1714,33,A15.wav,S,1246,S,10H,16,50
1715,34,A16.wav,S,1217,S,10H,15,50
1716,35,A14.wav,S,1242,S,10H,17,50
1717,36,A19.wav,S,1327,S,10H,12,50
1718,37,A14.wav,S,1159,S,10H,17,50
1719,38,A16.wav,S,1274,S,10H,15,50
1720,39,A15.wav,S,1120,S,10H,16,50
1721,40,A12.wav,S,1240,S,10H,19,50
1722,41,A17.wav,S,1228,S,10H,14,50
1723,42,A15.wav,S,1237,S,10H,16,50
1724,43,A14.wav,S,2355,S,10H,17,50
1725,44,A19.wav,S,1352,S,10H,12,50
1726,45,A12.wav,S,1229,S,10H,19,50
1727,46,A17.wav,S,1272,S,10H,14,50
1728,47,A16.wav,S,1081,S,10H,15,50
1729,48,A14.wav,S,1304,S,10H,17,50
1730,49,A19.wav,S,1324,S,10H,12,50
1731,50,A17.wav,S,1294,S,10H,14,50
1732,51,A16.wav,S,1376,S,10H,15,50
1733,52,A12.wav,S,3055,S,10H,19,50
1734,53,A15.wav,S,1399,S,10H,16,50
1735,54,A16.wav,S,1327,S,10H,15,50
1736,55,A12.wav,S,1360,S,10H,19,50
1737,56,A19.wav,S,1241,S,10H,12,50
1738,57,A14.wav,S,1507,S,10H,17,50
1739,58,A17.wav,S,1352,S,10H,14,50
1740,59,A15.wav,S,1457,S,10H,16,50
1741,0,A14.wav,S,3643,S,10H,17,51
1742,1,A15.wav,S,2138,S,10H,16,51
1743,2,A16.wav,S,1380,S,10H,15,51
1744,3,A12.wav,S,1519,S,10H,19,51
1745,4,A19.wav,S,1334,S,10H,12,51
1746,5,A17.wav,S,1401,S,10H,14,51
1747,6,A17.wav,S,1197,S,10H,14,51
1748,7,A16.wav,S,1336,S,10H,15,51
1749,8,A14.wav,S,1139,S,10H,17,51
1750,9,A15.wav,S,1353,S,10H,16,51
1751,10,A12.wav,S,1134,S,10H,19,51
1752,11,A19.wav,S,1374,S,10H,12,51
1753,12,A16.wav,S,1046,S,10H,15,51
1754,13,A19.wav,S,1342,S,10H,12,51
1755,14,A14.wav,S,1433,S,10H,17,51
1756,15,A17.wav,S,1526,S,10H,14,51
1757,16,A15.wav,S,1470,S,10H,16,51
1758,17,A12.wav,S,1696,S,10H,19,51
1759,18,A15.wav,S,1833,S,10H,16,51
1760,19,A16.wav,S,1313,S,10H,15,51
1761,20,A14.wav,S,1427,S,10H,17,51
1762,21,A17.wav,S,1837,S,10H,14,51
1763,22,A12.wav,S,1650,S,10H,19,51
1764,23,A19.wav,SH,1272,S,10H,12,51
1765,24,A14.wav,SH,1394,S,10H,17,51
1766,25,A15.wav,S,1416,S,10H,16,51
1767,26,A19.wav,S,1899,S,10H,12,51
1768,27,A12.wav,S,1383,S,10H,19,51
1769,28,A17.wav,S,1946,S,10H,14,51
1770,29,A16.wav,SH,1555,S,10H,15,51
1771,30,A15.wav,SH,1373,S,10H,16,51
1772,31,A12.wav,SH,1354,S,10H,19,51
1773,32,A19.wav,SH,1130,S,10H,12,51
1774,33,A17.wav,S,1381,S,10H,14,51
1775,34,A16.wav,S,1384,S,10H,15,51
1776,35,A14.wav,S,1432,S,10H,17,51
1777,36,A16.wav,SH,1244,S,10H,15,51
1778,37,A19.wav,S,1017,S,10H,12,51
1779,38,A14.wav,SH,1269,S,10H,17,51
1780,39,A17.wav,S,1182,S,10H,14,51
1781,40,A15.wav,S,1654,S,10H,16,51
1782,41,A12.wav,SH,1224,S,10H,19,51
1783,42,A16.wav,S,1360,S,10H,15,51
1784,43,A15.wav,SH,1216,S,10H,16,51
1785,44,A12.wav,SH,1605,S,10H,19,51
1786,45,A17.wav,S,1100,S,10H,14,51
1787,46,A14.wav,S,1024,S,10H,17,51
1788,47,A19.wav,SH,1150,S,10H,12,51
1789,48,A15.wav,SH,899,S,10H,16,51
1790,49,A12.wav,SH,1812,S,10H,19,51
1791,50,A16.wav,SH,1064,S,10H,15,51
1792,51,A17.wav,S,1621,S,10H,14,51
1793,52,A14.wav,SH,1109,S,10H,17,51
1794,53,A19.wav,S,1346,S,10H,12,51
1795,54,A16.wav,SH,1225,S,10H,15,51
1796,55,A14.wav,SH,1715,S,10H,17,51
1797,56,A15.wav,SH,1750,S,10H,16,51
1798,57,A19.wav,SH,1686,S,10H,12,51
1799,58,A12.wav,SH,1172,S,10H,19,51
1800,59,A17.wav,S,877,S,10H,14,51
1801,0,A12.wav,S,5896,S,10H,19,52
1802,1,A15.wav,S,5112,S,10H,16,52
1803,2,A16.wav,SH,3428,S,10H,15,52
1804,3,A17.wav,S,1646,S,10H,14,52
1805,4,A19.wav,S,1659,S,10H,12,52
1806,5,A14.wav,SH,2323,S,10H,17,52
1807,6,A15.wav,SH,1426,S,10H,16,52
1808,7,A19.wav,SH,1286,S,10H,12,52
1809,8,A12.wav,SH,1299,S,10H,19,52
1810,9,A16.wav,SH,1409,S,10H,15,52
1811,10,A14.wav,S,1408,S,10H,17,52
1812,11,A17.wav,S,1218,S,10H,14,52
1813,12,A16.wav,SH,1397,S,10H,15,52
1814,13,A12.wav,SH,1292,S,10H,19,52
1815,14,A14.wav,SH,1263,S,10H,17,52
1816,15,A17.wav,SH,1185,S,10H,14,52
1817,16,A15.wav,S,1187,S,10H,16,52
1818,17,A19.wav,S,1370,S,10H,12,52
1819,18,A19.wav,SH,1281,S,10H,12,52
1820,19,A14.wav,SH,1406,S,10H,17,52
1821,20,A12.wav,SH,973,S,10H,19,52
1822,21,A16.wav,S,1116,S,10H,15,52
1823,22,A15.wav,S,1163,S,10H,16,52
1824,23,A17.wav,S,1078,S,10H,14,52
1825,24,A15.wav,S,981,S,10H,16,52
1826,25,A17.wav,S,1025,S,10H,14,52
1827,26,A14.wav,SH,1093,S,10H,17,52
1828,27,A16.wav,SH,1064,S,10H,15,52
1829,28,A19.wav,SH,1402,S,10H,12,52
1830,29,A12.wav,SH,1092,S,10H,19,52
1831,30,A12.wav,SH,1134,S,10H,19,52
1832,31,A14.wav,S,1023,S,10H,17,52
1833,32,A16.wav,S,1012,S,10H,15,52
1834,33,A15.wav,S,1045,S,10H,16,52
1835,34,A19.wav,S,1001,S,10H,12,52
1836,35,A17.wav,SH,1282,S,10H,14,52
1837,36,A15.wav,SH,1033,S,10H,16,52
1838,37,A12.wav,SH,982,S,10H,19,52
1839,38,A16.wav,SH,908,S,10H,15,52
1840,39,A19.wav,SH,953,S,10H,12,52
1841,40,A17.wav,SH,949,S,10H,14,52
1842,41,A14.wav,SH,1038,S,10H,17,52
1843,42,A19.wav,S,916,S,10H,12,52
1844,43,A15.wav,S,1039,S,10H,16,52
1845,44,A12.wav,SH,916,S,10H,19,52
1846,45,A17.wav,SH,2670,S,10H,14,52
1847,46,A14.wav,S,1166,S,10H,17,52
1848,47,A16.wav,SH,1183,S,10H,15,52
1849,48,A17.wav,S,2996,S,10H,14,52
1850,49,A19.wav,S,1548,S,10H,12,52
1851,50,A16.wav,S,1160,S,10H,15,52
1852,51,A15.wav,SH,1449,S,10H,16,52
1853,52,A14.wav,SH,964,S,10H,17,52
1854,53,A12.wav,SH,837,S,10H,19,52
1855,54,A17.wav,SH,1135,S,10H,14,52
1856,55,A14.wav,SH,889,S,10H,17,52
1857,56,A12.wav,S,1155,S,10H,19,52
1858,57,A19.wav,S,995,S,10H,12,52
1859,58,A15.wav,SH,1345,S,10H,16,52
1860,59,A16.wav,S,1356,S,10H,15,52
1861,0,A16.wav,S,4559,S,10H,15,53
1862,1,A14.wav,S,3462,S,10H,17,53
1863,2,A15.wav,S,3759,S,10H,16,53
1864,3,A17.wav,S,1572,S,10H,14,53
1865,4,A12.wav,S,2087,S,10H,19,53
1866,5,A19.wav,S,2216,S,10H,12,53
1867,6,A15.wav,SH,1558,S,10H,16,53
1868,7,A12.wav,SH,1505,S,10H,19,53
1869,8,A14.wav,SH,1859,S,10H,17,53
1870,9,A16.wav,S,2179,S,10H,15,53
1871,10,A17.wav,S,1304,S,10H,14,53
1872,11,A19.wav,S,1369,S,10H,12,53
1873,12,A16.wav,S,1398,S,10H,15,53
1874,13,A14.wav,SH,1290,S,10H,17,53
1875,14,A19.wav,S,1109,S,10H,12,53
1876,15,A12.wav,SH,1233,S,10H,19,53
1877,16,A15.wav,SH,1319,S,10H,16,53
1878,17,A17.wav,SH,1460,S,10H,14,53
1879,18,A16.wav,SH,1345,S,10H,15,53
1880,19,A17.wav,SH,1468,S,10H,14,53
1881,20,A14.wav,SH,2514,S,10H,17,53
1882,21,A12.wav,SH,1406,S,10H,19,53
1883,22,A19.wav,S,1200,S,10H,12,53
1884,23,A15.wav,S,1427,S,10H,16,53
1885,24,A12.wav,SH,1561,S,10H,19,53
1886,25,A17.wav,S,1395,S,10H,14,53
1887,26,A14.wav,SH,1322,S,10H,17,53
1888,27,A15.wav,SH,1330,S,10H,16,53
1889,28,A16.wav,S,1469,S,10H,15,53
1890,29,A19.wav,S,1227,S,10H,12,53
1891,30,A12.wav,SH,1307,S,10H,19,53
1892,31,A19.wav,S,1305,S,10H,12,53
1893,32,A17.wav,SH,1365,S,10H,14,53
1894,33,A15.wav,SH,1386,S,10H,16,53
1895,34,A16.wav,SH,1298,S,10H,15,53
1896,35,A14.wav,SH,1349,S,10H,17,53
1897,36,A14.wav,SH,1407,S,10H,17,53
1898,37,A16.wav,SH,1468,S,10H,15,53
1899,38,A12.wav,SH,1499,S,10H,19,53
1900,39,A15.wav,SH,1444,S,10H,16,53
1901,40,A19.wav,S,1250,S,10H,12,53
1902,41,A17.wav,SH,1723,S,10H,14,53
1903,42,A16.wav,S,6103,S,10H,15,53
1904,43,A15.wav,SH,1490,S,10H,16,53
1905,44,A17.wav,SH,2164,S,10H,14,53
1906,45,A19.wav,S,1142,S,10H,12,53
1907,46,A14.wav,SH,1319,S,10H,17,53
1908,47,A12.wav,SH,1262,S,10H,19,53
1909,48,A12.wav,SH,1353,S,10H,19,53
1910,49,A19.wav,S,1237,S,10H,12,53
1911,50,A15.wav,SH,1259,S,10H,16,53
1912,51,A16.wav,S,2619,S,10H,15,53
1913,52,A17.wav,SH,1456,S,10H,14,53
1914,53,A14.wav,SH,1282,S,10H,17,53
1915,54,A15.wav,SH,1332,S,10H,16,53
1916,55,A17.wav,SH,1355,S,10H,14,53
1917,56,A19.wav,S,1129,S,10H,12,53
1918,57,A16.wav,SH,1278,S,10H,15,53
1919,58,A14.wav,SH,1481,S,10H,17,53
1920,59,A12.wav,SH,1332,S,10H,19,53
1921,0,A12.wav,S,5042,S,10H,19,54
1922,1,A19.wav,S,3501,S,10H,12,54
1923,2,A14.wav,S,1932,S,10H,17,54
1924,3,A15.wav,S,3028,S,10H,16,54
1925,4,A16.wav,S,1785,S,10H,15,54
1926,5,A17.wav,S,1832,S,10H,14,54
1927,6,A19.wav,S,1499,S,10H,12,54
1928,7,A17.wav,S,1844,S,10H,14,54
1929,8,A16.wav,S,2386,S,10H,15,54
1930,9,A15.wav,S,2877,S,10H,16,54
1931,10,A12.wav,S,2362,S,10H,19,54
1932,11,A14.wav,S,2106,S,10H,17,54
1933,12,A15.wav,S,2419,S,10H,16,54
1934,13,A12.wav,S,2465,S,10H,19,54
1935,14,A19.wav,S,2049,S,10H,12,54
1936,15,A17.wav,S,2138,S,10H,14,54
1937,16,A16.wav,S,1966,S,10H,15,54
1938,17,A14.wav,S,3782,S,10H,17,54
1939,18,A14.wav,S,2056,S,10H,17,54
1940,19,A17.wav,S,1722,S,10H,14,54
1941,20,A16.wav,S,1768,S,10H,15,54
1942,21,A12.wav,S,1515,S,10H,19,54
1943,22,A19.wav,S,1760,S,10H,12,54
1944,23,A15.wav,S,1515,S,10H,16,54
1945,24,A14.wav,S,1431,S,10H,17,54
1946,25,A17.wav,S,1461,S,10H,14,54
1947,26,A16.wav,S,1435,S,10H,15,54
1948,27,A15.wav,S,1507,S,10H,16,54
1949,28,A12.wav,S,1550,S,10H,19,54
1950,29,A19.wav,S,1657,S,10H,12,54
1951,30,A12.wav,S,1807,S,10H,19,54
1952,31,A19.wav,S,2106,S,10H,12,54
1953,32,A15.wav,S,1517,S,10H,16,54
1954,33,A16.wav,S,1491,S,10H,15,54
1955,34,A17.wav,S,1495,S,10H,14,54
1956,35,A14.wav,S,1820,S,10H,17,54
1957,36,A12.wav,S,1958,S,10H,19,54
1958,37,A14.wav,S,1660,S,10H,17,54
1959,38,A15.wav,S,1777,S,10H,16,54
1960,39,A19.wav,S,1708,S,10H,12,54
1961,40,A16.wav,S,1551,S,10H,15,54
1962,41,A17.wav,S,1599,S,10H,14,54
1963,42,A16.wav,S,1698,S,10H,15,54
1964,43,A17.wav,S,1679,S,10H,14,54
1965,44,A12.wav,S,1844,S,10H,19,54
1966,45,A19.wav,S,2165,S,10H,12,54
1967,46,A15.wav,S,1722,S,10H,16,54
1968,47,A14.wav,S,1631,S,10H,17,54
1969,48,A19.wav,S,1477,S,10H,12,54
1970,49,A17.wav,S,1558,S,10H,14,54
1971,50,A12.wav,S,1572,S,10H,19,54
1972,51,A16.wav,S,1593,S,10H,15,54
1973,52,A14.wav,S,1536,S,10H,17,54
1974,53,A15.wav,S,1769,S,10H,16,54
1975,54,A14.wav,S,1859,S,10H,17,54
1976,55,A19.wav,S,1825,S,10H,12,54
1977,56,A16.wav,S,1526,S,10H,15,54
1978,57,A17.wav,S,1540,S,10H,14,54
1979,58,A15.wav,S,1370,S,10H,16,54
1980,59,A12.wav,S,1314,S,10H,19,54
1981,0,A19.wav,S,6523,S,10H,12,55
1982,1,A17.wav,S,2531,S,10H,14,55
1983,2,A12.wav,SH,2111,S,10H,19,55
1984,3,A16.wav,S,2670,S,10H,15,55
1985,4,A15.wav,SH,1981,S,10H,16,55
1986,5,A14.wav,SH,1803,S,10H,17,55
1987,6,A14.wav,SH,1213,S,10H,17,55
1988,7,A15.wav,S,1503,S,10H,16,55
1989,8,A16.wav,S,1187,S,10H,15,55
1990,9,A12.wav,SH,1093,S,10H,19,55
1991,10,A17.wav,S,1217,S,10H,14,55
1992,11,A19.wav,S,1088,S,10H,12,55
1993,12,A16.wav,SH,1023,S,10H,15,55
1994,13,A17.wav,S,1218,S,10H,14,55
1995,14,A14.wav,SH,1170,S,10H,17,55
1996,15,A12.wav,S,4193,S,10H,19,55
1997,16,A19.wav,S,1373,S,10H,12,55
1998,17,A15.wav,S,1420,S,10H,16,55
1999,18,A19.wav,S,1037,S,10H,12,55
2000,19,A16.wav,S,990,S,10H,15,55
2001,20,A17.wav,SH,1077,S,10H,14,55
2002,21,A14.wav,SH,1099,S,10H,17,55
2003,22,A12.wav,SH,1146,S,10H,19,55
2004,23,A15.wav,S,1306,S,10H,16,55
2005,24,A12.wav,SH,1027,S,10H,19,55
2006,25,A15.wav,SH,1043,S,10H,16,55
2007,26,A17.wav,SH,2749,S,10H,14,55
2008,27,A14.wav,S,1360,S,10H,17,55
2009,28,A16.wav,S,1366,S,10H,15,55
2010,29,A19.wav,S,1087,S,10H,12,55
2011,30,A12.wav,SH,1034,S,10H,19,55
2012,31,A19.wav,S,1005,S,10H,12,55
2013,32,A15.wav,SH,1339,S,10H,16,55
2014,33,A14.wav,SH,1054,S,10H,17,55
2015,34,A16.wav,S,1323,S,10H,15,55
2016,35,A17.wav,S,1346,S,10H,14,55
2017,36,A14.wav,SH,1244,S,10H,17,55
2018,37,A15.wav,SH,1037,S,10H,16,55
2019,38,A12.wav,SH,946,S,10H,19,55
2020,39,A17.wav,S,983,S,10H,14,55
2021,40,A16.wav,SH,1504,S,10H,15,55
2022,41,A19.wav,S,1016,S,10H,12,55
2023,42,A19.wav,S,1007,S,10H,12,55
2024,43,A12.wav,SH,977,S,10H,19,55
2025,44,A14.wav,SH,1004,S,10H,17,55
2026,45,A17.wav,S,972,S,10H,14,55
2027,46,A15.wav,SH,1008,S,10H,16,55
2028,47,A16.wav,S,1411,S,10H,15,55
2029,48,A19.wav,S,1219,S,10H,12,55
2030,49,A16.wav,SH,1039,S,10H,15,55
2031,50,A12.wav,SH,979,S,10H,19,55
2032,51,A15.wav,SH,1587,S,10H,16,55
2033,52,A17.wav,S,1058,S,10H,14,55
2034,53,A14.wav,SH,993,S,10H,17,55
2035,54,A12.wav,SH,973,S,10H,19,55
2036,55,A14.wav,SH,947,S,10H,17,55
2037,56,A16.wav,SH,1057,S,10H,15,55
2038,57,A15.wav,SH,950,S,10H,16,55
2039,58,A17.wav,S,973,S,10H,14,55
2040,59,A19.wav,S,1077,S,10H,12,55
2041,0,A15.wav,S,3438,S,10H,16,56
2042,1,A16.wav,S,4338,S,10H,15,56
2043,2,A17.wav,S,1547,S,10H,14,56
2044,3,A19.wav,S,1312,S,10H,12,56
2045,4,A12.wav,S,1741,S,10H,19,56
2046,5,A14.wav,S,1145,S,10H,17,56
2047,6,A15.wav,S,1017,S,10H,16,56
2048,7,A17.wav,S,1249,S,10H,14,56
2049,8,A14.wav,S,1325,S,10H,17,56
2050,9,A16.wav,S,1114,S,10H,15,56
2051,10,A19.wav,S,1106,S,10H,12,56
2052,11,A12.wav,S,1036,S,10H,19,56
2053,12,A12.wav,S,916,S,10H,19,56
2054,13,A14.wav,S,3305,S,10H,17,56
2055,14,A19.wav,S,1307,S,10H,12,56
2056,15,A16.wav,S,1030,S,10H,15,56
2057,16,A17.wav,S,1116,S,10H,14,56
2058,17,A15.wav,S,1030,S,10H,16,56
2059,18,A17.wav,S,949,S,10H,14,56
2060,19,A14.wav,S,4064,S,10H,17,56
2061,20,A19.wav,S,977,S,10H,12,56
2062,21,A12.wav,S,938,S,10H,19,56
2063,22,A16.wav,S,1170,S,10H,15,56
2064,23,A15.wav,S,1019,S,10H,16,56
2065,24,A19.wav,S,956,S,10H,12,56
2066,25,A14.wav,S,1021,S,10H,17,56
2067,26,A17.wav,S,1069,S,10H,14,56
2068,27,A12.wav,S,1059,S,10H,19,56
2069,28,A15.wav,S,1179,S,10H,16,56
2070,29,A16.wav,S,959,S,10H,15,56
2071,30,A19.wav,S,1227,S,10H,12,56
2072,31,A12.wav,S,966,S,10H,19,56
2073,32,A16.wav,S,1310,S,10H,15,56
2074,33,A15.wav,S,1112,S,10H,16,56
2075,34,A17.wav,S,1081,S,10H,14,56
2076,35,A14.wav,S,1116,S,10H,17,56
2077,36,A15.wav,S,1358,S,10H,16,56
2078,37,A14.wav,S,1144,S,10H,17,56
2079,38,A12.wav,S,1124,S,10H,19,56
2080,39,A16.wav,S,1072,S,10H,15,56
2081,40,A17.wav,S,1140,S,10H,14,56
2082,41,A19.wav,S,1215,S,10H,12,56
2083,42,A14.wav,S,968,S,10H,17,56
2084,43,A17.wav,S,1084,S,10H,14,56
2085,44,A16.wav,S,1164,S,10H,15,56
2086,45,A19.wav,S,1190,S,10H,12,56
2087,46,A15.wav,S,1042,S,10H,16,56
2088,47,A12.wav,S,1230,S,10H,19,56
2089,48,A15.wav,S,934,S,10H,16,56
2090,49,A12.wav,S,944,S,10H,19,56
2091,50,A17.wav,S,947,S,10H,14,56
2092,51,A19.wav,S,1177,S,10H,12,56
2093,52,A14.wav,S,933,S,10H,17,56
2094,53,A16.wav,S,879,S,10H,15,56
2095,54,A14.wav,S,1800,S,10H,17,56
2096,55,A17.wav,S,1083,S,10H,14,56
2097,56,A15.wav,S,851,S,10H,16,56
2098,57,A12.wav,S,1013,S,10H,19,56
2099,58,A16.wav,S,940,S,10H,15,56
2100,59,A19.wav,S,3717,S,10H,12,56
2101,0,A14.wav,S,3193,SH,10H,17,57
2102,1,A15.wav,S,1274,SH,10H,16,57
2103,2,A17.wav,S,1610,SH,10H,14,57
2104,3,A19.wav,S,1434,SH,10H,12,57
2105,4,A16.wav,S,1555,SH,10H,15,57
2106,5,A12.wav,SH,1281,SH,10H,19,57
2107,6,A14.wav,SH,1107,SH,10H,17,57
2108,7,A17.wav,S,1171,SH,10H,14,57
2109,8,A19.wav,S,1355,SH,10H,12,57
2110,9,A16.wav,S,1171,SH,10H,15,57
2111,10,A15.wav,S,1145,SH,10H,16,57
2112,11,A12.wav,SH,1027,SH,10H,19,57
2113,12,A16.wav,SH,1169,SH,10H,15,57
2114,13,A15.wav,SH,996,SH,10H,16,57
2115,14,A14.wav,SH,955,SH,10H,17,57
2116,15,A19.wav,SH,1017,SH,10H,12,57
2117,16,A12.wav,SH,922,SH,10H,19,57
2118,17,A17.wav,SH,890,SH,10H,14,57
2119,18,A17.wav,SH,3406,SH,10H,14,57
2120,19,A16.wav,SH,1241,SH,10H,15,57
2121,20,A15.wav,SH,1075,SH,10H,16,57
2122,21,A19.wav,SH,1331,SH,10H,12,57
2123,22,A14.wav,SH,1835,SH,10H,17,57
2124,23,A12.wav,SH,1067,SH,10H,19,57
2125,24,A19.wav,S,1418,SH,10H,12,57
2126,25,A16.wav,S,1315,SH,10H,15,57
2127,26,A15.wav,S,1369,SH,10H,16,57
2128,27,A17.wav,S,1059,SH,10H,14,57
2129,28,A14.wav,SH,1034,SH,10H,17,57
2130,29,A12.wav,SH,1043,SH,10H,19,57
2131,30,A12.wav,SH,1102,SH,10H,19,57
2132,31,A17.wav,S,1400,SH,10H,14,57
2133,32,A19.wav,S,1139,SH,10H,12,57
2134,33,A16.wav,S,1211,SH,10H,15,57
2135,34,A14.wav,S,1115,SH,10H,17,57
2136,35,A15.wav,S,1354,SH,10H,16,57
2137,36,A15.wav,S,1227,SH,10H,16,57
2138,37,A16.wav,S,1555,SH,10H,15,57
2139,38,A17.wav,S,1331,SH,10H,14,57
2140,39,A14.wav,S,1051,SH,10H,17,57
2141,40,A19.wav,S,971,SH,10H,12,57
2142,41,A12.wav,S,1058,SH,10H,19,57
2143,42,A15.wav,S,923,SH,10H,16,57
2144,43,A14.wav,S,2715,SH,10H,17,57
2145,44,A17.wav,S,1059,SH,10H,14,57
2146,45,A19.wav,S,883,SH,10H,12,57
2147,46,A16.wav,S,972,SH,10H,15,57
2148,47,A12.wav,S,1156,SH,10H,19,57
2149,48,A12.wav,SH,987,SH,10H,19,57
2150,49,A14.wav,SH,1099,SH,10H,17,57
2151,50,A15.wav,SH,1059,SH,10H,16,57
2152,51,A19.wav,S,1141,SH,10H,12,57
2153,52,A16.wav,S,1451,SH,10H,15,57
2154,53,A17.wav,S,1474,SH,10H,14,57
2155,54,A15.wav,S,1130,SH,10H,16,57
2156,55,A14.wav,SH,1250,SH,10H,17,57
2157,56,A17.wav,S,1244,SH,10H,14,57
2158,57,A16.wav,S,1027,SH,10H,15,57
2159,58,A19.wav,S,1066,SH,10H,12,57
2160,59,A12.wav,SH,1106,SH,10H,19,57
2161,0,A15.wav,SH,4422,SH,10H,16,58
2162,1,A17.wav,SH,2217,SH,10H,14,58
2163,2,A12.wav,SH,2081,SH,10H,19,58
2164,3,A14.wav,SH,2093,SH,10H,17,58
2165,4,A19.wav,SH,1693,SH,10H,12,58
2166,5,A16.wav,SH,1644,SH,10H,15,58
2167,6,A19.wav,SH,1568,SH,10H,12,58
2168,7,A12.wav,S,2118,SH,10H,19,58
2169,8,A15.wav,S,1568,SH,10H,16,58
2170,9,A17.wav,S,1381,SH,10H,14,58
2171,10,A16.wav,S,1468,SH,10H,15,58
2172,11,A14.wav,SH,1231,SH,10H,17,58
2173,12,A15.wav,SH,1257,SH,10H,16,58
2174,13,A17.wav,S,1206,SH,10H,14,58
2175,14,A19.wav,S,1181,SH,10H,12,58
2176,15,A16.wav,SH,1218,SH,10H,15,58
2177,16,A12.wav,SH,1132,SH,10H,19,58
2178,17,A14.wav,SH,1168,SH,10H,17,58
2179,18,A15.wav,SH,1182,SH,10H,16,58
2180,19,A17.wav,S,1168,SH,10H,14,58
2181,20,A19.wav,S,1269,SH,10H,12,58
2182,21,A14.wav,SH,1206,SH,10H,17,58
2183,22,A16.wav,S,1194,SH,10H,15,58
2184,23,A12.wav,S,1281,SH,10H,19,58
2185,24,A16.wav,SH,1768,SH,10H,15,58
2186,25,A15.wav,SH,1120,SH,10H,16,58
2187,26,A17.wav,SH,1119,SH,10H,14,58
2188,27,A14.wav,SH,1218,SH,10H,17,58
2189,28,A12.wav,SH,1107,SH,10H,19,58
2190,29,A19.wav,S,1544,SH,10H,12,58
2191,30,A16.wav,S,1655,SH,10H,15,58
2192,31,A15.wav,SH,1156,SH,10H,16,58
2193,32,A19.wav,SH,2095,SH,10H,12,58
2194,33,A12.wav,SH,1169,SH,10H,19,58
2195,34,A14.wav,SH,1094,SH,10H,17,58
2196,35,A17.wav,S,1256,SH,10H,14,58
2197,36,A12.wav,SH,1144,SH,10H,19,58
2198,37,A14.wav,SH,1117,SH,10H,17,58
2199,38,A15.wav,SH,1070,SH,10H,16,58
2200,39,A17.wav,SH,981,SH,10H,14,58
2201,40,A16.wav,SH,994,SH,10H,15,58
2202,41,A19.wav,SH,1031,SH,10H,12,58
2203,42,A12.wav,SH,1032,SH,10H,19,58
2204,43,A19.wav,S,1081,SH,10H,12,58
2205,44,A17.wav,SH,1544,SH,10H,14,58
2206,45,A15.wav,SH,1182,SH,10H,16,58
2207,46,A16.wav,SH,1293,SH,10H,15,58
2208,47,A14.wav,S,1269,SH,10H,17,58
2209,48,A14.wav,S,2056,SH,10H,17,58
2210,49,A17.wav,S,1119,SH,10H,14,58
2211,50,A15.wav,S,1044,SH,10H,16,58
2212,51,A12.wav,SH,1069,SH,10H,19,58
2213,52,A19.wav,S,1107,SH,10H,12,58
2214,53,A16.wav,SH,1119,SH,10H,15,58
2215,54,A19.wav,S,1194,SH,10H,12,58
2216,55,A15.wav,SH,1069,SH,10H,16,58
2217,56,A17.wav,S,1194,SH,10H,14,58
2218,57,A16.wav,SH,1482,SH,10H,15,58
2219,58,A12.wav,SH,969,SH,10H,19,58
2220,59,A14.wav,SH,1194,SH,10H,17,58
2221,0,A16.wav,SH,6618,SH,10H,15,59
2222,1,A15.wav,SH,4882,SH,10H,16,59
2223,2,A14.wav,SH,2504,SH,10H,17,59
2224,3,A19.wav,SH,2133,SH,10H,12,59
2225,4,A17.wav,SH,2002,SH,10H,14,59
2226,5,A12.wav,SH,1773,SH,10H,19,59
2227,6,A15.wav,SH,1118,SH,10H,16,59
2228,7,A17.wav,SH,1047,SH,10H,14,59
2229,8,A12.wav,SH,930,SH,10H,19,59
2230,9,A16.wav,SH,990,SH,10H,15,59
2231,10,A14.wav,SH,928,SH,10H,17,59
2232,11,A19.wav,SH,937,SH,10H,12,59
2233,12,A15.wav,SH,1330,SH,10H,16,59
2234,13,A19.wav,SH,967,SH,10H,12,59
2235,14,A14.wav,SH,1220,SH,10H,17,59
2236,15,A16.wav,SH,1047,SH,10H,15,59
2237,16,A12.wav,S,1692,SH,10H,19,59
2238,17,A17.wav,SH,1364,SH,10H,14,59
2239,18,A17.wav,SH,1313,SH,10H,14,59
2240,19,A12.wav,SH,1095,SH,10H,19,59
2241,20,A15.wav,SH,1127,SH,10H,16,59
2242,21,A14.wav,SH,913,SH,10H,17,59
2243,22,A16.wav,SH,1084,SH,10H,15,59
2244,23,A19.wav,SH,1020,SH,10H,12,59
2245,24,A12.wav,SH,1135,SH,10H,19,59
2246,25,A14.wav,SH,1289,SH,10H,17,59
2247,26,A16.wav,SH,1639,SH,10H,15,59
2248,27,A17.wav,SH,1266,SH,10H,14,59
2249,28,A15.wav,SH,1143,SH,10H,16,59
2250,29,A19.wav,SH,1545,SH,10H,12,59
2251,30,A14.wav,SH,2393,SH,10H,17,59
2252,31,A12.wav,SH,1310,SH,10H,19,59
2253,32,A16.wav,S,3017,SH,10H,15,59
2254,33,A19.wav,S,1833,SH,10H,12,59
2255,34,A17.wav,S,1086,SH,10H,14,59
2256,35,A15.wav,SH,1160,SH,10H,16,59
2257,36,A17.wav,S,1375,SH,10H,14,59
2258,37,A14.wav,SH,1218,SH,10H,17,59
2259,38,A16.wav,SH,1052,SH,10H,15,59
2260,39,A12.wav,S,1264,SH,10H,19,59
2261,40,A19.wav,S,2536,SH,10H,12,59
2262,41,A15.wav,SH,1146,SH,10H,16,59
2263,42,A19.wav,S,1280,SH,10H,12,59
2264,43,A16.wav,SH,1036,SH,10H,15,59
2265,44,A17.wav,SH,1689,SH,10H,14,59
2266,45,A12.wav,SH,1217,SH,10H,19,59
2267,46,A14.wav,SH,940,SH,10H,17,59
2268,47,A15.wav,SH,976,SH,10H,16,59
2269,48,A12.wav,SH,966,SH,10H,19,59
2270,49,A19.wav,S,1207,SH,10H,12,59
2271,50,A15.wav,SH,1144,SH,10H,16,59
2272,51,A16.wav,SH,1162,SH,10H,15,59
2273,52,A17.wav,S,1817,SH,10H,14,59
2274,53,A14.wav,SH,1024,SH,10H,17,59
2275,54,A15.wav,SH,981,SH,10H,16,59
2276,55,A16.wav,SH,976,SH,10H,15,59
2277,56,A14.wav,SH,1506,SH,10H,17,59
2278,57,A17.wav,SH,1191,SH,10H,14,59
2279,58,A12.wav,SH,1084,SH,10H,19,59
2280,59,A19.wav,SH,1010,SH,10H,12,59
2281,0,A19.wav,SH,5434,SH,10H,12,60
2282,1,A16.wav,SH,3293,SH,10H,15,60
2283,2,A17.wav,S,2421,SH,10H,14,60
2284,3,A15.wav,SH,1378,SH,10H,16,60
2285,4,A14.wav,SH,1445,SH,10H,17,60
2286,5,A12.wav,SH,1197,SH,10H,19,60
2287,6,A17.wav,SH,2164,SH,10H,14,60
2288,7,A14.wav,SH,1221,SH,10H,17,60
2289,8,A12.wav,SH,1149,SH,10H,19,60
2290,9,A15.wav,S,2013,SH,10H,16,60
2291,10,A19.wav,S,1349,SH,10H,12,60
2292,11,A16.wav,SH,1325,SH,10H,15,60
2293,12,A16.wav,SH,1212,SH,10H,15,60
2294,13,A12.wav,SH,1213,SH,10H,19,60
2295,14,A14.wav,SH,1485,SH,10H,17,60
2296,15,A19.wav,S,1141,SH,10H,12,60
2297,16,A15.wav,SH,1277,SH,10H,16,60
2298,17,A17.wav,SH,1685,SH,10H,14,60
2299,18,A15.wav,SH,1180,SH,10H,16,60
2300,19,A16.wav,SH,1261,SH,10H,15,60
2301,20,A19.wav,S,1502,SH,10H,12,60
2302,21,A17.wav,SH,973,SH,10H,14,60
2303,22,A12.wav,SH,1037,SH,10H,19,60
2304,23,A14.wav,SH,1080,SH,10H,17,60
2305,24,A16.wav,SH,1148,SH,10H,15,60
2306,25,A19.wav,S,1469,SH,10H,12,60
2307,26,A14.wav,SH,1062,SH,10H,17,60
2308,27,A17.wav,SH,1229,SH,10H,14,60
2309,28,A15.wav,SH,1070,SH,10H,16,60
2310,29,A12.wav,SH,1093,SH,10H,19,60
2311,30,A19.wav,S,1086,SH,10H,12,60
2312,31,A17.wav,SH,1034,SH,10H,14,60
2313,32,A12.wav,SH,972,SH,10H,19,60
2314,33,A15.wav,SH,1172,SH,10H,16,60
2315,34,A16.wav,SH,1141,SH,10H,15,60
2316,35,A14.wav,SH,1203,SH,10H,17,60
2317,36,A15.wav,SH,1093,SH,10H,16,60
2318,37,A12.wav,SH,1133,SH,10H,19,60
2319,38,A19.wav,S,1165,SH,10H,12,60
2320,39,A14.wav,SH,958,SH,10H,17,60
2321,40,A16.wav,SH,980,SH,10H,15,60
2322,41,A17.wav,SH,949,SH,10H,14,60
2323,42,A14.wav,SH,973,SH,10H,17,60
2324,43,A15.wav,SH,970,SH,10H,16,60
2325,44,A17.wav,SH,962,SH,10H,14,60
2326,45,A19.wav,S,1347,SH,10H,12,60
2327,46,A12.wav,SH,1158,SH,10H,19,60
2328,47,A16.wav,SH,1269,SH,10H,15,60
2329,48,A19.wav,S,1358,SH,10H,12,60
2330,49,A15.wav,SH,907,SH,10H,16,60
2331,50,A14.wav,SH,997,SH,10H,17,60
2332,51,A16.wav,S,1909,SH,10H,15,60
2333,52,A17.wav,S,2125,SH,10H,14,60
2334,53,A12.wav,SH,925,SH,10H,19,60
2335,54,A17.wav,SH,1028,SH,10H,14,60
2336,55,A16.wav,SH,1037,SH,10H,15,60
2337,56,A14.wav,SH,942,SH,10H,17,60
2338,57,A19.wav,S,1790,SH,10H,12,60
2339,58,A15.wav,SH,956,SH,10H,16,60
2340,59,A12.wav,SH,909,SH,10H,19,60
2341,0,A14.wav,S,2951,SH,10H,17,61
2342,1,A16.wav,S,1565,SH,10H,15,61
2343,2,A15.wav,S,1704,SH,10H,16,61
2344,3,A17.wav,S,2181,SH,10H,14,61
2345,4,A12.wav,S,1839,SH,10H,19,61
2346,5,A19.wav,S,5994,SH,10H,12,61
2347,6,A19.wav,S,3712,SH,10H,12,61
2348,7,A14.wav,S,2957,SH,10H,17,61
2349,8,A12.wav,S,5297,SH,10H,19,61
2350,9,A17.wav,S,1973,SH,10H,14,61
2351,10,A16.wav,S,2044,SH,10H,15,61
2352,11,A15.wav,S,2923,SH,10H,16,61
2353,12,A15.wav,S,1534,SH,10H,16,61
2354,13,A16.wav,S,1576,SH,10H,15,61
2355,14,A14.wav,SH,1717,SH,10H,17,61
2356,15,A19.wav,S,1643,SH,10H,12,61
2357,16,A17.wav,S,1338,SH,10H,14,61
2358,17,A12.wav,S,4376,SH,10H,19,61
2359,18,A19.wav,S,1605,SH,10H,12,61
2360,19,A12.wav,S,2099,SH,10H,19,61
2361,20,A17.wav,S,1752,SH,10H,14,61
2362,21,A15.wav,S,1435,SH,10H,16,61
2363,22,A14.wav,S,1443,SH,10H,17,61
2364,23,A16.wav,S,1288,SH,10H,15,61
2365,24,A16.wav,S,1351,SH,10H,15,61
2366,25,A12.wav,S,1694,SH,10H,19,61
2367,26,A14.wav,S,1504,SH,10H,17,61
2368,27,A15.wav,S,1445,SH,10H,16,61
2369,28,A17.wav,S,1292,SH,10H,14,61
2370,29,A19.wav,S,1342,SH,10H,12,61
2371,30,A15.wav,S,2132,SH,10H,16,61
2372,31,A16.wav,S,1687,SH,10H,15,61
2373,32,A14.wav,S,2607,SH,10H,17,61
2374,33,A19.wav,S,2066,SH,10H,12,61
2375,34,A17.wav,S,1586,SH,10H,14,61
2376,35,A12.wav,S,2823,SH,10H,19,61
2377,36,A19.wav,S,1877,SH,10H,12,61
2378,37,A16.wav,S,1842,SH,10H,15,61
2379,38,A12.wav,S,1564,SH,10H,19,61
2380,39,A17.wav,S,2396,SH,10H,14,61
2381,40,A15.wav,S,2997,SH,10H,16,61
2382,41,A14.wav,S,1917,SH,10H,17,61
2383,42,A14.wav,S,2032,SH,10H,17,61
2384,43,A15.wav,S,1984,SH,10H,16,61
2385,44,A16.wav,S,1491,SH,10H,15,61
2386,45,A12.wav,S,1442,SH,10H,19,61
2387,46,A19.wav,S,2059,SH,10H,12,61
2388,47,A17.wav,S,1343,SH,10H,14,61
2389,48,A14.wav,SH,1469,SH,10H,17,61
2390,49,A17.wav,S,1274,SH,10H,14,61
2391,50,A16.wav,S,1400,SH,10H,15,61
2392,51,A12.wav,SH,1440,SH,10H,19,61
2393,52,A19.wav,S,1437,SH,10H,12,61
2394,53,A15.wav,S,1070,SH,10H,16,61
2395,54,A19.wav,S,1025,SH,10H,12,61
2396,55,A15.wav,SH,2265,SH,10H,16,61
2397,56,A17.wav,S,1399,SH,10H,14,61
2398,57,A14.wav,S,2400,SH,10H,17,61
2399,58,A16.wav,S,1255,SH,10H,15,61
2400,59,A12.wav,SH,1145,SH,10H,19,61
2401,0,A16.wav,SH,6580,SH,10H,15,62
2402,1,A17.wav,SH,3516,SH,10H,14,62
2403,2,A19.wav,SH,2100,SH,10H,12,62
2404,3,A15.wav,SH,1705,SH,10H,16,62
2405,4,A12.wav,SH,3712,SH,10H,19,62
2406,5,A14.wav,SH,1627,SH,10H,17,62
2407,6,A14.wav,SH,1388,SH,10H,17,62
2408,7,A17.wav,SH,1262,SH,10H,14,62
2409,8,A15.wav,SH,1289,SH,10H,16,62
2410,9,A16.wav,SH,1129,SH,10H,15,62
2411,10,A19.wav,SH,979,SH,10H,12,62
2412,11,A12.wav,SH,1210,SH,10H,19,62
2413,12,A14.wav,SH,919,SH,10H,17,62
2414,13,A16.wav,SH,924,SH,10H,15,62
2415,14,A19.wav,SH,1095,SH,10H,12,62
2416,15,A15.wav,SH,1524,SH,10H,16,62
2417,16,A17.wav,SH,1222,SH,10H,14,62
2418,17,A12.wav,SH,947,SH,10H,19,62
2419,18,A19.wav,SH,942,SH,10H,12,62
2420,19,A17.wav,SH,943,SH,10H,14,62
2421,20,A14.wav,SH,2909,SH,10H,17,62
2422,21,A15.wav,SH,1442,SH,10H,16,62
2423,22,A16.wav,SH,867,SH,10H,15,62
2424,23,A12.wav,SH,890,SH,10H,19,62
2425,24,A12.wav,SH,1181,SH,10H,19,62
2426,25,A17.wav,SH,994,SH,10H,14,62
2427,26,A19.wav,SH,915,SH,10H,12,62
2428,27,A16.wav,SH,959,SH,10H,15,62
2429,28,A15.wav,SH,909,SH,10H,16,62
2430,29,A14.wav,SH,1263,SH,10H,17,62
2431,30,A16.wav,SH,1206,SH,10H,15,62
2432,31,A14.wav,SH,889,SH,10H,17,62
2433,32,A19.wav,SH,871,SH,10H,12,62
2434,33,A17.wav,SH,1098,SH,10H,14,62
2435,34,A15.wav,SH,1202,SH,10H,16,62
2436,35,A12.wav,SH,922,SH,10H,19,62
2437,36,A17.wav,SH,825,SH,10H,14,62
2438,37,A19.wav,SH,3515,SH,10H,12,62
2439,38,A15.wav,SH,1339,SH,10H,16,62
2440,39,A12.wav,SH,894,SH,10H,19,62
2441,40,A16.wav,SH,2886,SH,10H,15,62
2442,41,A14.wav,SH,969,SH,10H,17,62
2443,42,A19.wav,SH,937,SH,10H,12,62
2444,43,A16.wav,SH,1190,SH,10H,15,62
2445,44,A17.wav,SH,928,SH,10H,14,62
2446,45,A12.wav,SH,1575,SH,10H,19,62
2447,46,A14.wav,SH,942,SH,10H,17,62
2448,47,A15.wav,SH,915,SH,10H,16,62
2449,48,A12.wav,SH,869,SH,10H,19,62
2450,49,A19.wav,SH,1411,SH,10H,12,62
2451,50,A14.wav,SH,1214,SH,10H,17,62
2452,51,A17.wav,SH,1277,SH,10H,14,62
2453,52,A16.wav,SH,1064,SH,10H,15,62
2454,53,A15.wav,SH,940,SH,10H,16,62
2455,54,A17.wav,SH,900,SH,10H,14,62
2456,55,A15.wav,SH,850,SH,10H,16,62
2457,56,A12.wav,SH,984,SH,10H,19,62
2458,57,A16.wav,SH,924,SH,10H,15,62
2459,58,A14.wav,SH,894,SH,10H,17,62
2460,59,A19.wav,SH,861,SH,10H,12,62
2461,0,A19.wav,S,6813,SH,10H,12,63
2462,1,A16.wav,S,3867,SH,10H,15,63
2463,2,A14.wav,S,5073,SH,10H,17,63
2464,3,A15.wav,SH,6298,SH,10H,16,63
2465,4,A17.wav,S,4302,SH,10H,14,63
2466,5,A12.wav,S,5053,SH,10H,19,63
2467,6,A14.wav,S,2438,SH,10H,17,63
2468,7,A12.wav,S,2811,SH,10H,19,63
2469,8,A16.wav,S,1470,SH,10H,15,63
2470,9,A19.wav,S,1990,SH,10H,12,63
2471,10,A17.wav,S,1804,SH,10H,14,63
2472,11,A15.wav,S,1833,SH,10H,16,63
2473,12,A19.wav,S,1867,SH,10H,12,63
2474,13,A16.wav,S,3623,SH,10H,15,63
2475,14,A12.wav,S,3029,SH,10H,19,63
2476,15,A15.wav,SH,2934,SH,10H,16,63
2477,16,A17.wav,S,1326,SH,10H,14,63
2478,17,A14.wav,S,1377,SH,10H,17,63
2479,18,A17.wav,S,1289,SH,10H,14,63
2480,19,A16.wav,S,1395,SH,10H,15,63
2481,20,A15.wav,S,1706,SH,10H,16,63
2482,21,A14.wav,S,1742,SH,10H,17,63
2483,22,A12.wav,S,1349,SH,10H,19,63
2484,23,A19.wav,S,1576,SH,10H,12,63
2485,24,A12.wav,SH,3962,SH,10H,19,63
2486,25,A19.wav,SH,3693,SH,10H,12,63
2487,26,A16.wav,SH,1594,SH,10H,15,63
2488,27,A15.wav,SH,1458,SH,10H,16,63
2489,28,A14.wav,SH,1277,SH,10H,17,63
2490,29,A17.wav,SH,1235,SH,10H,14,63
2491,30,A12.wav,SH,1195,SH,10H,19,63
2492,31,A19.wav,SH,1146,SH,10H,12,63
2493,32,A14.wav,S,1630,SH,10H,17,63
2494,33,A16.wav,SH,1225,SH,10H,15,63
2495,34,A15.wav,SH,902,SH,10H,16,63
2496,35,A17.wav,SH,1335,SH,10H,14,63
2497,36,A14.wav,SH,908,SH,10H,17,63
2498,37,A15.wav,SH,977,SH,10H,16,63
2499,38,A16.wav,SH,1372,SH,10H,15,63
2500,39,A17.wav,SH,1232,SH,10H,14,63
2501,40,A12.wav,SH,1587,SH,10H,19,63
2502,41,A19.wav,SH,1181,SH,10H,12,63
2503,42,A17.wav,SH,1677,SH,10H,14,63
2504,43,A16.wav,SH,1349,SH,10H,15,63
2505,44,A15.wav,SH,1696,SH,10H,16,63
2506,45,A12.wav,SH,1358,SH,10H,19,63
2507,46,A14.wav,SH,1191,SH,10H,17,63
2508,47,A19.wav,SH,1455,SH,10H,12,63
2509,48,A12.wav,SH,1244,SH,10H,19,63
2510,49,A15.wav,SH,1685,SH,10H,16,63
2511,50,A19.wav,SH,1323,SH,10H,12,63
2512,51,A16.wav,SH,1229,SH,10H,15,63
2513,52,A14.wav,SH,1197,SH,10H,17,63
2514,53,A17.wav,SH,1114,SH,10H,14,63
2515,54,A17.wav,SH,1278,SH,10H,14,63
2516,55,A16.wav,SH,840,SH,10H,15,63
2517,56,A15.wav,SH,1143,SH,10H,16,63
2518,57,A14.wav,SH,929,SH,10H,17,63
2519,58,A19.wav,SH,1200,SH,10H,12,63
2520,59,A12.wav,SH,1227,SH,10H,19,63
2521,0,A19.wav,SH,10947,SH,10H,12,64
2522,1,A15.wav,SH,3224,SH,10H,16,64
2523,2,A14.wav,S,6627,SH,10H,17,64
2524,3,A16.wav,S,1468,SH,10H,15,64
2525,4,A12.wav,SH,1277,SH,10H,19,64
2526,5,A17.wav,SH,1823,SH,10H,14,64
2527,6,A17.wav,S,1101,SH,10H,14,64
2528,7,A14.wav,SH,1849,SH,10H,17,64
2529,8,A12.wav,SH,1065,SH,10H,19,64
2530,9,A16.wav,S,1081,SH,10H,15,64
2531,10,A15.wav,SH,1321,SH,10H,16,64
2532,11,A19.wav,S,1086,SH,10H,12,64
2533,12,A14.wav,SH,1461,SH,10H,17,64
2534,13,A12.wav,SH,1093,SH,10H,19,64
2535,14,A17.wav,SH,1028,SH,10H,14,64
2536,15,A16.wav,SH,935,SH,10H,15,64
2537,16,A15.wav,SH,980,SH,10H,16,64
2538,17,A19.wav,SH,1343,SH,10H,12,64
2539,18,A17.wav,SH,1093,SH,10H,14,64
2540,19,A12.wav,SH,949,SH,10H,19,64
2541,20,A14.wav,SH,955,SH,10H,17,64
2542,21,A15.wav,SH,1463,SH,10H,16,64
2543,22,A16.wav,SH,1119,SH,10H,15,64
2544,23,A19.wav,S,1016,SH,10H,12,64
2545,24,A19.wav,S,941,SH,10H,12,64
2546,25,A12.wav,SH,971,SH,10H,19,64
2547,26,A14.wav,SH,1043,SH,10H,17,64
2548,27,A15.wav,S,964,SH,10H,16,64
2549,28,A17.wav,S,1015,SH,10H,14,64
2550,29,A16.wav,S,947,SH,10H,15,64
2551,30,A17.wav,S,896,SH,10H,14,64
2552,31,A16.wav,S,835,SH,10H,15,64
2553,32,A19.wav,S,844,SH,10H,12,64
2554,33,A12.wav,SH,910,SH,10H,19,64
2555,34,A15.wav,SH,997,SH,10H,16,64
2556,35,A14.wav,SH,918,SH,10H,17,64
2557,36,A12.wav,SH,886,SH,10H,19,64
2558,37,A15.wav,SH,870,SH,10H,16,64
2559,38,A14.wav,SH,912,SH,10H,17,64
2560,39,A17.wav,S,929,SH,10H,14,64
2561,40,A19.wav,S,889,SH,10H,12,64
2562,41,A16.wav,SH,1158,SH,10H,15,64
2563,42,A16.wav,SH,1929,SH,10H,15,64
2564,43,A15.wav,SH,1069,SH,10H,16,64
2565,44,A12.wav,SH,933,SH,10H,19,64
2566,45,A14.wav,SH,1333,SH,10H,17,64
2567,46,A19.wav,S,952,SH,10H,12,64
2568,47,A17.wav,S,950,SH,10H,14,64
2569,48,A17.wav,S,978,SH,10H,14,64
2570,49,A19.wav,S,914,SH,10H,12,64
2571,50,A16.wav,SH,1393,SH,10H,15,64
2572,51,A15.wav,SH,1124,SH,10H,16,64
2573,52,A12.wav,SH,973,SH,10H,19,64
2574,53,A14.wav,SH,974,SH,10H,17,64
2575,54,A19.wav,S,891,SH,10H,12,64
2576,55,A16.wav,SH,1102,SH,10H,15,64
2577,56,A12.wav,SH,976,SH,10H,19,64
2578,57,A15.wav,SH,982,SH,10H,16,64
2579,58,A14.wav,SH,1560,SH,10H,17,64
2580,59,A17.wav,SH,3267,SH,10H,14,64
2581,0,A17.wav,S,4099,S,10M,14,65
2582,1,A12.wav,SH,2403,S,10M,19,65
2583,2,A16.wav,S,1779,S,10M,15,65
2584,3,A15.wav,SH,1588,S,10M,16,65
2585,4,A19.wav,S,1475,S,10M,12,65
2586,5,A14.wav,SH,1283,S,10M,17,65
2587,6,A19.wav,SH,1268,S,10M,12,65
2588,7,A14.wav,SH,1123,S,10M,17,65
2589,8,A15.wav,SH,1123,S,10M,16,65
2590,9,A12.wav,SH,1044,S,10M,19,65
2591,10,A16.wav,SH,1123,S,10M,15,65
2592,11,A17.wav,SH,995,S,10M,14,65
2593,12,A16.wav,SH,964,S,10M,15,65
2594,13,A17.wav,SH,980,S,10M,14,65
2595,14,A14.wav,SH,996,S,10M,17,65
2596,15,A12.wav,SH,1189,S,10M,19,65
2597,16,A15.wav,SH,1217,S,10M,16,65
2598,17,A19.wav,SH,1189,S,10M,12,65
2599,18,A14.wav,SH,1267,S,10M,17,65
2600,19,A16.wav,SH,1202,S,10M,15,65
2601,20,A12.wav,SH,1203,S,10M,19,65
2602,21,A15.wav,SH,1157,S,10M,16,65
2603,22,A17.wav,SH,1315,S,10M,14,65
2604,23,A19.wav,S,2436,S,10M,12,65
2605,24,A12.wav,S,1283,S,10M,19,65
2606,25,A16.wav,S,1075,S,10M,15,65
2607,26,A15.wav,S,930,S,10M,16,65
2608,27,A17.wav,S,977,S,10M,14,65
2609,28,A19.wav,S,931,S,10M,12,65
2610,29,A14.wav,S,882,S,10M,17,65
2611,30,A12.wav,SH,1122,S,10M,19,65
2612,31,A19.wav,SH,980,S,10M,12,65
2613,32,A17.wav,SH,980,S,10M,14,65
2614,33,A15.wav,SH,933,S,10M,16,65
2615,34,A16.wav,SH,915,S,10M,15,65
2616,35,A14.wav,SH,918,S,10M,17,65
2617,36,A14.wav,SH,948,S,10M,17,65
2618,37,A12.wav,SH,885,S,10M,19,65
2619,38,A17.wav,SH,963,S,10M,14,65
2620,39,A16.wav,SH,917,S,10M,15,65
2621,40,A19.wav,SH,900,S,10M,12,65
2622,41,A15.wav,SH,931,S,10M,16,65
2623,42,A17.wav,SH,996,S,10M,14,65
2624,43,A12.wav,SH,996,S,10M,19,65
2625,44,A14.wav,SH,965,S,10M,17,65
2626,45,A15.wav,SH,916,S,10M,16,65
2627,46,A19.wav,SH,917,S,10M,12,65
2628,47,A16.wav,SH,899,S,10M,15,65
2629,48,A16.wav,SH,917,S,10M,15,65
2630,49,A17.wav,SH,948,S,10M,14,65
2631,50,A19.wav,SH,1029,S,10M,12,65
2632,51,A12.wav,S,1072,S,10M,19,65
2633,52,A14.wav,S,868,S,10M,17,65
2634,53,A15.wav,S,915,S,10M,16,65
2635,54,A14.wav,SH,996,S,10M,17,65
2636,55,A16.wav,SH,916,S,10M,15,65
2637,56,A12.wav,SH,1891,S,10M,19,65
2638,57,A17.wav,SH,868,S,10M,14,65
2639,58,A19.wav,S,980,S,10M,12,65
2640,59,A15.wav,SH,901,S,10M,16,65
2641,0,A16.wav,S,23547,S,10M,15,66
2642,1,A14.wav,S,12171,S,10M,17,66
2643,2,A15.wav,S,5977,S,10M,16,66
2644,3,A17.wav,S,11281,S,10M,14,66
2645,4,A19.wav,S,7989,S,10M,12,66
2646,5,A12.wav,S,7668,S,10M,19,66
2647,6,A17.wav,S,3705,S,10M,14,66
2648,7,A14.wav,S,6018,S,10M,17,66
2649,8,A12.wav,S,2362,S,10M,19,66
2650,9,A15.wav,S,2342,S,10M,16,66
2651,10,A19.wav,S,3724,S,10M,12,66
2652,11,A16.wav,S,1920,S,10M,15,66
2653,12,A19.wav,S,1721,S,10M,12,66
2654,13,A16.wav,S,1594,S,10M,15,66
2655,14,A15.wav,S,1793,S,10M,16,66
2656,15,A17.wav,S,2109,S,10M,14,66
2657,16,A12.wav,S,2059,S,10M,19,66
2658,17,A14.wav,S,3285,S,10M,17,66
2659,18,A17.wav,S,2244,S,10M,14,66
2660,19,A12.wav,S,1715,S,10M,19,66
2661,20,A16.wav,S,2083,S,10M,15,66
2662,21,A19.wav,S,1963,S,10M,12,66
2663,22,A15.wav,S,1535,S,10M,16,66
2664,23,A14.wav,S,1524,S,10M,17,66
2665,24,A15.wav,S,1717,S,10M,16,66
2666,25,A19.wav,S,1374,S,10M,12,66
2667,26,A16.wav,S,1687,S,10M,15,66
2668,27,A14.wav,S,1766,S,10M,17,66
2669,28,A17.wav,S,1643,S,10M,14,66
2670,29,A12.wav,S,1804,S,10M,19,66
2671,30,A15.wav,S,1618,S,10M,16,66
2672,31,A16.wav,S,4101,S,10M,15,66
2673,32,A14.wav,S,1721,S,10M,17,66
2674,33,A17.wav,S,3953,S,10M,14,66
2675,34,A19.wav,S,1509,S,10M,12,66
2676,35,A12.wav,S,1352,S,10M,19,66
2677,36,A14.wav,S,1235,S,10M,17,66
2678,37,A17.wav,S,1219,S,10M,14,66
2679,38,A19.wav,S,1224,S,10M,12,66
2680,39,A16.wav,S,1311,S,10M,15,66
2681,40,A12.wav,S,4204,S,10M,19,66
2682,41,A15.wav,S,9527,S,10M,16,66
2683,42,A15.wav,S,2567,S,10M,16,66
2684,43,A14.wav,S,1576,S,10M,17,66
2685,44,A17.wav,S,2124,S,10M,14,66
2686,45,A19.wav,S,1732,S,10M,12,66
2687,46,A16.wav,S,1928,S,10M,15,66
2688,47,A12.wav,SH,2504,S,10M,19,66
2689,48,A17.wav,SH,1549,S,10M,14,66
2690,49,A15.wav,SH,1420,S,10M,16,66
2691,50,A12.wav,SH,1344,S,10M,19,66
2692,51,A16.wav,SH,1079,S,10M,15,66
2693,52,A19.wav,SH,1163,S,10M,12,66
2694,53,A14.wav,SH,1249,S,10M,17,66
2695,54,A19.wav,SH,1393,S,10M,12,66
2696,55,A14.wav,SH,1067,S,10M,17,66
2697,56,A15.wav,SH,1188,S,10M,16,66
2698,57,A12.wav,SH,1127,S,10M,19,66
2699,58,A16.wav,SH,1138,S,10M,15,66
2700,59,A17.wav,SH,1074,S,10M,14,66
2701,0,A19.wav,S,2427,S,10M,12,67
2702,1,A12.wav,S,1544,S,10M,19,67
2703,2,A16.wav,S,1481,S,10M,15,67
2704,3,A15.wav,S,1308,S,10M,16,67
2705,4,A17.wav,S,1108,S,10M,14,67
2706,5,A14.wav,S,1164,S,10M,17,67
2707,6,A12.wav,S,837,S,10M,19,67
2708,7,A14.wav,S,862,S,10M,17,67
2709,8,A16.wav,S,988,S,10M,15,67
2710,9,A17.wav,S,935,S,10M,14,67
2711,10,A19.wav,S,1562,S,10M,12,67
2712,11,A15.wav,S,1222,S,10M,16,67
2713,12,A14.wav,S,1226,S,10M,17,67
2714,13,A19.wav,S,1392,S,10M,12,67
2715,14,A12.wav,SH,1602,S,10M,19,67
2716,15,A15.wav,S,1266,S,10M,16,67
2717,16,A17.wav,S,1062,S,10M,14,67
2718,17,A16.wav,S,1133,S,10M,15,67
2719,18,A12.wav,S,1030,S,10M,19,67
2720,19,A16.wav,S,1097,S,10M,15,67
2721,20,A19.wav,S,1053,S,10M,12,67
2722,21,A15.wav,S,988,S,10M,16,67
2723,22,A14.wav,S,1041,S,10M,17,67
2724,23,A17.wav,S,962,S,10M,14,67
2725,24,A16.wav,S,1644,S,10M,15,67
2726,25,A15.wav,S,1100,S,10M,16,67
2727,26,A12.wav,S,920,S,10M,19,67
2728,27,A17.wav,S,960,S,10M,14,67
2729,28,A14.wav,S,956,S,10M,17,67
2730,29,A19.wav,S,993,S,10M,12,67
2731,30,A16.wav,S,1084,S,10M,15,67
2732,31,A14.wav,S,1119,S,10M,17,67
2733,32,A19.wav,S,1111,S,10M,12,67
2734,33,A12.wav,S,1067,S,10M,19,67
2735,34,A15.wav,S,957,S,10M,16,67
2736,35,A17.wav,S,1038,S,10M,14,67
2737,36,A14.wav,S,884,S,10M,17,67
2738,37,A12.wav,S,1018,S,10M,19,67
2739,38,A19.wav,S,2116,S,10M,12,67
2740,39,A15.wav,S,1202,S,10M,16,67
2741,40,A16.wav,S,1048,S,10M,15,67
2742,41,A17.wav,S,1562,S,10M,14,67
2743,42,A12.wav,S,1156,S,10M,19,67
2744,43,A19.wav,S,1049,S,10M,12,67
2745,44,A14.wav,S,1004,S,10M,17,67
2746,45,A17.wav,S,990,S,10M,14,67
2747,46,A15.wav,S,971,S,10M,16,67
2748,47,A16.wav,S,1004,S,10M,15,67
2749,48,A16.wav,S,967,S,10M,15,67
2750,49,A15.wav,S,939,S,10M,16,67
2751,50,A19.wav,S,815,S,10M,12,67
2752,51,A17.wav,S,815,S,10M,14,67
2753,52,A12.wav,S,3794,S,10M,19,67
2754,53,A14.wav,S,1287,S,10M,17,67
2755,54,A19.wav,S,1148,S,10M,12,67
2756,55,A12.wav,S,1017,S,10M,19,67
2757,56,A16.wav,S,1523,S,10M,15,67
2758,57,A17.wav,S,1191,S,10M,14,67
2759,58,A14.wav,S,1143,S,10M,17,67
2760,59,A15.wav,S,965,S,10M,16,67
2761,0,A17.wav,S,4984,S,10M,14,68
2762,1,A14.wav,S,2104,S,10M,17,68
2763,2,A15.wav,S,1868,S,10M,16,68
2764,3,A19.wav,S,1641,S,10M,12,68
2765,4,A12.wav,S,1827,S,10M,19,68
2766,5,A16.wav,S,1823,S,10M,15,68
2767,6,A16.wav,S,1132,S,10M,15,68
2768,7,A19.wav,S,1520,S,10M,12,68
2769,8,A17.wav,S,1616,S,10M,14,68
2770,9,A15.wav,SH,1613,S,10M,16,68
2771,10,A12.wav,S,1740,S,10M,19,68
2772,11,A14.wav,S,1842,S,10M,17,68
2773,12,A19.wav,S,1847,S,10M,12,68
2774,13,A14.wav,S,1882,S,10M,17,68
2775,14,A16.wav,S,1477,S,10M,15,68
2776,15,A15.wav,S,1460,S,10M,16,68
2777,16,A12.wav,S,1323,S,10M,19,68
2778,17,A17.wav,S,1536,S,10M,14,68
2779,18,A19.wav,S,1727,S,10M,12,68
2780,19,A17.wav,S,1615,S,10M,14,68
2781,20,A16.wav,S,1158,S,10M,15,68
2782,21,A14.wav,S,1079,S,10M,17,68
2783,22,A15.wav,S,1208,S,10M,16,68
2784,23,A12.wav,S,1223,S,10M,19,68
2785,24,A17.wav,S,1187,S,10M,14,68
2786,25,A19.wav,S,1440,S,10M,12,68
2787,26,A14.wav,S,1304,S,10M,17,68
2788,27,A16.wav,S,1238,S,10M,15,68
2789,28,A12.wav,S,1320,S,10M,19,68
2790,29,A15.wav,S,1232,S,10M,16,68
2791,30,A16.wav,S,1354,S,10M,15,68
2792,31,A15.wav,S,1224,S,10M,16,68
2793,32,A19.wav,S,1110,S,10M,12,68
2794,33,A14.wav,S,1066,S,10M,17,68
2795,34,A17.wav,S,1220,S,10M,14,68
2796,35,A12.wav,S,1254,S,10M,19,68
2797,36,A12.wav,S,1153,S,10M,19,68
2798,37,A15.wav,S,1148,S,10M,16,68
2799,38,A14.wav,S,1203,S,10M,17,68
2800,39,A16.wav,S,1268,S,10M,15,68
2801,40,A17.wav,S,1091,S,10M,14,68
2802,41,A19.wav,S,1177,S,10M,12,68
2803,42,A16.wav,S,1245,S,10M,15,68
2804,43,A12.wav,S,1082,S,10M,19,68
2805,44,A15.wav,S,969,S,10M,16,68
2806,45,A19.wav,S,1078,S,10M,12,68
2807,46,A17.wav,S,1044,S,10M,14,68
2808,47,A14.wav,S,1101,S,10M,17,68
2809,48,A15.wav,S,1116,S,10M,16,68
2810,49,A16.wav,S,1160,S,10M,15,68
2811,50,A17.wav,S,1164,S,10M,14,68
2812,51,A12.wav,S,1193,S,10M,19,68
2813,52,A14.wav,S,1177,S,10M,17,68
2814,53,A19.wav,S,1094,S,10M,12,68
2815,54,A16.wav,S,1112,S,10M,15,68
2816,55,A17.wav,S,1086,S,10M,14,68
2817,56,A15.wav,S,1127,S,10M,16,68
2818,57,A19.wav,S,1087,S,10M,12,68
2819,58,A14.wav,S,1082,S,10M,17,68
2820,59,A12.wav,S,1028,S,10M,19,68
2821,0,A16.wav,S,2809,S,10M,15,69
2822,1,A17.wav,S,1468,S,10M,14,69
2823,2,A19.wav,S,2395,S,10M,12,69
2824,3,A15.wav,S,1266,S,10M,16,69
2825,4,A14.wav,S,1593,S,10M,17,69
2826,5,A12.wav,S,1312,S,10M,19,69
2827,6,A12.wav,S,2741,S,10M,19,69
2828,7,A17.wav,S,1379,S,10M,14,69
2829,8,A14.wav,S,5339,S,10M,17,69
2830,9,A15.wav,S,4547,S,10M,16,69
2831,10,A19.wav,S,2011,S,10M,12,69
2832,11,A16.wav,S,1533,S,10M,15,69
2833,12,A15.wav,S,1938,S,10M,16,69
2834,13,A16.wav,S,2612,S,10M,15,69
2835,14,A17.wav,S,1628,S,10M,14,69
2836,15,A12.wav,S,1677,S,10M,19,69
2837,16,A19.wav,SH,2074,S,10M,12,69
2838,17,A14.wav,SH,1546,S,10M,17,69
2839,18,A15.wav,SH,1186,S,10M,16,69
2840,19,A14.wav,SH,1205,S,10M,17,69
2841,20,A16.wav,SH,1161,S,10M,15,69
2842,21,A19.wav,S,1952,S,10M,12,69
2843,22,A12.wav,S,3456,S,10M,19,69
2844,23,A17.wav,S,1204,S,10M,14,69
2845,24,A14.wav,S,1100,S,10M,17,69
2846,25,A12.wav,S,953,S,10M,19,69
2847,26,A16.wav,S,1101,S,10M,15,69
2848,27,A19.wav,S,851,S,10M,12,69
2849,28,A15.wav,S,1100,S,10M,16,69
2850,29,A17.wav,S,1068,S,10M,14,69
2851,30,A16.wav,S,1106,S,10M,15,69
2852,31,A17.wav,S,976,S,10M,14,69
2853,32,A14.wav,S,1131,S,10M,17,69
2854,33,A15.wav,S,1057,S,10M,16,69
2855,34,A19.wav,S,1006,S,10M,12,69
2856,35,A12.wav,S,983,S,10M,19,69
2857,36,A14.wav,S,920,S,10M,17,69
